neck_yaw, neck_pitch, left_shoulder_pitch [shoulder], left_shoulder_roll, left_elbow, right_shoulder_pitch [shoulder], right_shoulder_roll, right_elbow, left_hip_yaw [hip], left_hip_roll, left_hip_pitch, left_knee, left_ankle_roll, left_ankle_pitch, right_hip_yaw [hip], right_hip_roll, right_hip_pitch, right_knee, right_ankle_roll, right_ankle_pitch, gyro_x, gyro_y, gyro_z,acc_x, acc_y, acc_z
0.000000, -0.087266, 0.087266, 0.001523, 0.785398, 0.087266, 0.001523, 0.785398, 0.000000, -0.034907, 0.715585, -0.872665, 0.000000, 0.436332, 0.000000, 0.034907, 0.715585, -0.872665, 0.000000, 0.436332, 512.008, 512.07, 512.219, 520.453, 512.871, 513.948, 0.032
0.000000, -0.087266, 0.087266, 0.001523, 0.785398, 0.087266, 0.001523, 0.785398, 0.000000, -0.034907, 0.715585, -0.872665, 0.000000, 0.436332, 0.000000, 0.034907, 0.715585, -0.872665, 0.000000, 0.436332, 511.24, 514.847, 511.718, 455.698, 527.92, 983.179, 0.048
0.000000, -0.087266, 0.087266, 0.001523, 0.785398, 0.087266, 0.001523, 0.785398, 0.000000, -0.034907, 0.715585, -0.872665, 0.000000, 0.436332, 0.000000, 0.034907, 0.715585, -0.872665, 0.000000, 0.436332, 510.953, 515.183, 511.933, 507.65, 509.889, 489.912, 0.064
0.000000, -0.087266, 0.087266, 0.001523, 0.785398, 0.087266, 0.001523, 0.785398, 0.000000, -0.034907, 0.715585, -0.872665, 0.000000, 0.436332, 0.000000, 0.034907, 0.715585, -0.872665, 0.000000, 0.436332, 511.121, 518.671, 512.395, 490.136, 506.98, 534.229, 0.08
0.000000, -0.087266, 0.087266, 0.001523, 0.785398, 0.087266, 0.001523, 0.785398, 0.000000, -0.034907, 0.715585, -0.872665, 0.000000, 0.436332, 0.000000, 0.034907, 0.715585, -0.872665, 0.000000, 0.436332, 510.665, 521.076, 512.874, 494.577, 494.925, 603.757, 0.096
0.000000, -0.087266, 0.087266, 0.001523, 0.785398, 0.087266, 0.001523, 0.785398, 0.000000, -0.034907, 0.715585, -0.872665, 0.000000, 0.436332, 0.000000, 0.034907, 0.715585, -0.872665, 0.000000, 0.436332, 511.524, 524.535, 512.715, 510.664, 500.753, 634.222, 0.112
0.000000, -0.087266, 0.087266, 0.001523, 0.785398, 0.087266, 0.001523, 0.785398, 0.000000, -0.034907, 0.715585, -0.872665, 0.000000, 0.436332, 0.000000, 0.034907, 0.715585, -0.872665, 0.000000, 0.436332, 511.568, 526.144, 512.67, 526.677, 492.699, 647.571, 0.128
0.000000, -0.087266, 0.087266, 0.001523, 0.785398, 0.087266, 0.001523, 0.785398, 0.000000, -0.034907, 0.715585, -0.872665, 0.000000, 0.436332, 0.000000, 0.034907, 0.715585, -0.872665, 0.000000, 0.436332, 512.36, 525.989, 512.471, 523.48, 499.391, 656.407, 0.144
0.000000, -0.087266, 0.087266, 0.001523, 0.785398, 0.087266, 0.001523, 0.785398, 0.000000, -0.034907, 0.715585, -0.872665, 0.000000, 0.436332, 0.000000, 0.034907, 0.715585, -0.872665, 0.000000, 0.436332, 513.244, 525.864, 512.253, 521.555, 506.364, 659.768, 0.16
0.000000, -0.087266, 0.087266, 0.001523, 0.785398, 0.087266, 0.001523, 0.785398, 0.000000, -0.034907, 0.715585, -0.872665, 0.000000, 0.436332, 0.000000, 0.034907, 0.715585, -0.872665, 0.000000, 0.436332, 513.929, 525.808, 511.917, 519.526, 509.266, 660.578, 0.176
0.000000, -0.087266, 0.087266, 0.001523, 0.785398, 0.087266, 0.001523, 0.785398, 0.000000, -0.034907, 0.715585, -0.872665, 0.000000, 0.436332, 0.000000, 0.034907, 0.715585, -0.872665, 0.000000, 0.436332, 514.404, 525.721, 511.95, 514.013, 511.087, 658.219, 0.192
0.000000, -0.087266, 0.087266, 0.001523, 0.785398, 0.087266, 0.001523, 0.785398, 0.000000, -0.034907, 0.715585, -0.872665, 0.000000, 0.436332, 0.000000, 0.034907, 0.715585, -0.872665, 0.000000, 0.436332, 514.712, 525.66, 512.049, 511.81, 511.425, 656.572, 0.208
0.000000, -0.087266, 0.087266, 0.001523, 0.785398, 0.087266, 0.001523, 0.785398, 0.000000, -0.034907, 0.715585, -0.872665, 0.000000, 0.436332, 0.000000, 0.034907, 0.715585, -0.872665, 0.000000, 0.436332, 514.991, 525.747, 512.109, 509.011, 527.795, 654.023, 0.224
0.000000, -0.087266, 0.087266, 0.001523, 0.785398, 0.087266, 0.001523, 0.785398, 0.000000, -0.034907, 0.715585, -0.872665, 0.000000, 0.436332, 0.000000, 0.034907, 0.715585, -0.872665, 0.000000, 0.436332, 515.027, 525.801, 512.111, 503.941, 516.602, 652.194, 0.24
0.000000, -0.087266, 0.087266, 0.001523, 0.785398, 0.087266, 0.001523, 0.785398, 0.000000, -0.034907, 0.715585, -0.872665, 0.000000, 0.436332, 0.000000, 0.034907, 0.715585, -0.872665, 0.000000, 0.436332, 514.948, 525.812, 512.115, 500.606, 514.809, 650.2, 0.256
0.000000, -0.087266, 0.087266, 0.001523, 0.785398, 0.087266, 0.001523, 0.785398, 0.000000, -0.034907, 0.715585, -0.872665, 0.000000, 0.436332, 0.000000, 0.034907, 0.715585, -0.872665, 0.000000, 0.436332, 514.863, 525.867, 512.091, 500.205, 517.891, 648.912, 0.272
0.000000, -0.087266, 0.087266, 0.001523, 0.785398, 0.087266, 0.001523, 0.785398, 0.000000, -0.034907, 0.715585, -0.872665, 0.000000, 0.436332, 0.000000, 0.034907, 0.715585, -0.872665, 0.000000, 0.436332, 514.75, 525.967, 512.068, 499.343, 518.238, 647.25, 0.288
0.000000, -0.087266, 0.087266, 0.001523, 0.785398, 0.087266, 0.001523, 0.785398, 0.000000, -0.034907, 0.715585, -0.872665, 0.000000, 0.436332, 0.000000, 0.034907, 0.715585, -0.872665, 0.000000, 0.436332, 514.62, 526.064, 512.102, 498.682, 518.355, 646.024, 0.304
0.000000, -0.087266, 0.087266, 0.001523, 0.785398, 0.087266, 0.001523, 0.785398, 0.000000, -0.034907, 0.715585, -0.872665, 0.000000, 0.436332, 0.000000, 0.034907, 0.715585, -0.872665, 0.000000, 0.436332, 514.387, 526.176, 512.145, 496.392, 517.558, 644.382, 0.32
0.000000, -0.087266, 0.087266, 0.001523, 0.785398, 0.087266, 0.001523, 0.785398, 0.000000, -0.034907, 0.715585, -0.872665, 0.000000, 0.436332, 0.000000, 0.034907, 0.715585, -0.872665, 0.000000, 0.436332, 513.723, 525.122, 512.417, 501.998, 513.184, 644.447, 0.336
0.000000, -0.087266, 0.087266, 0.001523, 0.785398, 0.087266, 0.001523, 0.785398, 0.000000, -0.034907, 0.715585, -0.872665, 0.000000, 0.436332, 0.000000, 0.034907, 0.715585, -0.872665, 0.000000, 0.436332, 512.822, 521.695, 512.067, 511.81, 518.205, 661.665, 0.352
0.000000, -0.087266, 0.087266, 0.001523, 0.785398, 0.087266, 0.001523, 0.785398, 0.000000, -0.034907, 0.715585, -0.872665, 0.000000, 0.436332, 0.000000, 0.034907, 0.715585, -0.872665, 0.000000, 0.436332, 512.475, 520.65, 512.108, 493.925, 518.059, 641.189, 0.368
0.000000, -0.087266, 0.087266, 0.001523, 0.785398, 0.087266, 0.001523, 0.785398, 0.000000, -0.034907, 0.715585, -0.872665, 0.000000, 0.436332, 0.000000, 0.034907, 0.715585, -0.872665, 0.000000, 0.436332, 511.285, 519.748, 511.875, 466.151, 517.385, 640.754, 0.384
0.000000, -0.087266, 0.087266, 0.001523, 0.785398, 0.087266, 0.001523, 0.785398, 0.000000, -0.034907, 0.715585, -0.872665, 0.000000, 0.436332, 0.000000, 0.034907, 0.715585, -0.872665, 0.000000, 0.436332, 510.064, 518.864, 511.627, 468.446, 515.98, 635.592, 0.4
0.000000, -0.087266, 0.087266, 0.001523, 0.785398, 0.087266, 0.001523, 0.785398, 0.000000, -0.034907, 0.715585, -0.872665, 0.000000, 0.436332, 0.000000, 0.034907, 0.715585, -0.872665, 0.000000, 0.436332, 509.678, 518.175, 512.017, 445.484, 517.012, 632.337, 0.416
0.000000, -0.087266, 0.087266, 0.001523, 0.785398, 0.087266, 0.001523, 0.785398, 0.000000, -0.034907, 0.715585, -0.872665, 0.000000, 0.436332, 0.000000, 0.034907, 0.715585, -0.872665, 0.000000, 0.436332, 509.886, 517.053, 512.172, 465.75, 519.796, 632.257, 0.432
0.000000, -0.087266, 0.087266, 0.001523, 0.785398, 0.087266, 0.001523, 0.785398, 0.000000, -0.034907, 0.715585, -0.872665, 0.000000, 0.436332, 0.000000, 0.034907, 0.715585, -0.872665, 0.000000, 0.436332, 510.067, 516.029, 512.268, 468.849, 518.933, 634.145, 0.448
0.000000, -0.087266, 0.087266, 0.001523, 0.785398, 0.087266, 0.001523, 0.785398, 0.000000, -0.034907, 0.715585, -0.872665, 0.000000, 0.436332, 0.000000, 0.034907, 0.715585, -0.872665, 0.000000, 0.436332, 510.207, 515.106, 512.367, 468.812, 518.051, 634.087, 0.464
0.000000, -0.087266, 0.087266, 0.001523, 0.785398, 0.087266, 0.001523, 0.785398, 0.000000, -0.034907, 0.715585, -0.872665, 0.000000, 0.436332, 0.000000, 0.034907, 0.715585, -0.872665, 0.000000, 0.436332, 510.324, 514.261, 512.48, 469.211, 517.284, 634.069, 0.48
0.000000, -0.087266, 0.087266, 0.001523, 0.785398, 0.087266, 0.001523, 0.785398, 0.000000, -0.034907, 0.715585, -0.872665, 0.000000, 0.436332, 0.000000, 0.034907, 0.715585, -0.872665, 0.000000, 0.436332, 510.426, 513.491, 512.611, 469.941, 516.499, 634.116, 0.496
0.000000, -0.087266, 0.087266, 0.001523, 0.785398, 0.087266, 0.001523, 0.785398, 0.000000, -0.034907, 0.715585, -0.872665, 0.000000, 0.436332, 0.000000, 0.034907, 0.715585, -0.872665, 0.000000, 0.436332, 510.575, 512.771, 512.805, 471.663, 514.499, 634.076, 0.512
0.000000, -0.087266, 0.087266, 0.001523, 0.785398, 0.087266, 0.001523, 0.785398, 0.000000, -0.034907, 0.715585, -0.872665, 0.000000, 0.436332, 0.000000, 0.034907, 0.715585, -0.872665, 0.000000, 0.436332, 510.807, 512.274, 513.501, 471.527, 515.877, 634.79, 0.528
0.000000, -0.087266, 0.087266, 0.001523, 0.785398, 0.087266, 0.001523, 0.785398, 0.000000, -0.034907, 0.715585, -0.872665, 0.000000, 0.436332, 0.000000, 0.034907, 0.715585, -0.872665, 0.000000, 0.436332, 510.8, 511.953, 513.662, 473.533, 512.682, 634.911, 0.544
0.000000, -0.087266, 0.087266, 0.001523, 0.785398, 0.087266, 0.001523, 0.785398, 0.000000, -0.034907, 0.715585, -0.872665, 0.000000, 0.436332, 0.000000, 0.034907, 0.715585, -0.872665, 0.000000, 0.436332, 510.932, 511.713, 513.75, 475.284, 512.686, 635.524, 0.56
0.000000, -0.087266, 0.087266, 0.001523, 0.785398, 0.087266, 0.001523, 0.785398, 0.000000, -0.034907, 0.715585, -0.872665, 0.000000, 0.436332, 0.000000, 0.034907, 0.715585, -0.872665, 0.000000, 0.436332, 511.188, 511.342, 512.005, 479.346, 508.305, 636.051, 0.576
0.000000, -0.087266, 0.087266, 0.001523, 0.785398, 0.087266, 0.001523, 0.785398, 0.000000, -0.034907, 0.715585, -0.872665, 0.000000, 0.436332, 0.000000, 0.034907, 0.715585, -0.872665, 0.000000, 0.436332, 511.561, 511.219, 511.948, 478.272, 512.331, 636.684, 0.592
0.000000, -0.087266, 0.087266, 0.001523, 0.785398, 0.087266, 0.001523, 0.785398, 0.000000, -0.034907, 0.715585, -0.872665, 0.000000, 0.436332, 0.000000, 0.034907, 0.715585, -0.872665, 0.000000, 0.436332, 511.829, 511.148, 511.944, 479.563, 511.864, 636.682, 0.608
0.000000, -0.087266, 0.087266, 0.001523, 0.785398, 0.087266, 0.001523, 0.785398, 0.000000, -0.034907, 0.715585, -0.872665, 0.000000, 0.436332, 0.000000, 0.034907, 0.715585, -0.872665, 0.000000, 0.436332, 511.882, 511.145, 511.964, 480.996, 511.577, 636.883, 0.624
0.000000, -0.087266, 0.087266, 0.001523, 0.785398, 0.087266, 0.001523, 0.785398, 0.000000, -0.034907, 0.715585, -0.872665, 0.000000, 0.436332, 0.000000, 0.034907, 0.715585, -0.872665, 0.000000, 0.436332, 511.906, 511.2, 511.971, 482.277, 512.07, 637.141, 0.64
0.000000, -0.087266, 0.087266, 0.001523, 0.785398, 0.087266, 0.001523, 0.785398, 0.000000, -0.034907, 0.715585, -0.872665, 0.000000, 0.436332, 0.000000, 0.034907, 0.715585, -0.872665, 0.000000, 0.436332, 511.93, 511.271, 511.979, 482.808, 512.169, 636.956, 0.656
0.000000, -0.087266, 0.087266, 0.001523, 0.785398, 0.087266, 0.001523, 0.785398, 0.000000, -0.034907, 0.715585, -0.872665, 0.000000, 0.436332, 0.000000, 0.034907, 0.715585, -0.872665, 0.000000, 0.436332, 511.952, 511.351, 511.987, 483.071, 512.225, 636.916, 0.672
0.000000, -0.087266, 0.087266, 0.001523, 0.785398, 0.087266, 0.001523, 0.785398, 0.000000, -0.034907, 0.715585, -0.872665, 0.000000, 0.436332, 0.000000, 0.034907, 0.715585, -0.872665, 0.000000, 0.436332, 511.974, 511.437, 511.987, 483.244, 512.242, 636.906, 0.688
0.000000, -0.087266, 0.087266, 0.001523, 0.785398, 0.087266, 0.001523, 0.785398, 0.000000, -0.034907, 0.715585, -0.872665, 0.000000, 0.436332, 0.000000, 0.034907, 0.715585, -0.872665, 0.000000, 0.436332, 511.995, 511.526, 511.99, 483.324, 512.319, 636.885, 0.704
0.000000, -0.087266, 0.087266, 0.001523, 0.785398, 0.087266, 0.001523, 0.785398, 0.000000, -0.034907, 0.715585, -0.872665, 0.000000, 0.436332, 0.000000, 0.034907, 0.715585, -0.872665, 0.000000, 0.436332, 512.009, 511.617, 512.014, 483.327, 512.419, 636.852, 0.72
0.000000, -0.087266, 0.087266, 0.001523, 0.785398, 0.087266, 0.001523, 0.785398, 0.000000, -0.034907, 0.715585, -0.872665, 0.000000, 0.436332, 0.000000, 0.034907, 0.715585, -0.872665, 0.000000, 0.436332, 512.028, 511.706, 512.014, 483.338, 512.409, 636.835, 0.736
0.000000, -0.087266, 0.087266, 0.001523, 0.785398, 0.087266, 0.001523, 0.785398, 0.000000, -0.034907, 0.715585, -0.872665, 0.000000, 0.436332, 0.000000, 0.034907, 0.715585, -0.872665, 0.000000, 0.436332, 512.048, 511.791, 512.001, 483.276, 512.42, 636.806, 0.752
0.000000, -0.087266, 0.087266, 0.001523, 0.785398, 0.087266, 0.001523, 0.785398, 0.000000, -0.034907, 0.715585, -0.872665, 0.000000, 0.436332, 0.000000, 0.034907, 0.715585, -0.872665, 0.000000, 0.436332, 512.059, 511.872, 512.021, 483.12, 512.556, 636.748, 0.768
0.000000, -0.087266, 0.087266, 0.001523, 0.785398, 0.087266, 0.001523, 0.785398, 0.000000, -0.034907, 0.715585, -0.872665, 0.000000, 0.436332, 0.000000, 0.034907, 0.715585, -0.872665, 0.000000, 0.436332, 512.073, 511.94, 512.019, 482.934, 512.569, 636.712, 0.784
0.000000, -0.087266, 0.087266, 0.001523, 0.785398, 0.087266, 0.001523, 0.785398, 0.000000, -0.034907, 0.715585, -0.872665, 0.000000, 0.436332, 0.000000, 0.034907, 0.715585, -0.872665, 0.000000, 0.436332, 512.08, 511.995, 512.031, 482.623, 512.694, 636.644, 0.8
0.000000, -0.087266, 0.087266, 0.001523, 0.785398, 0.087266, 0.001523, 0.785398, 0.000000, -0.034907, 0.715585, -0.872665, 0.000000, 0.436332, 0.000000, 0.034907, 0.715585, -0.872665, 0.000000, 0.436332, 512.088, 512.037, 512.024, 482.362, 512.739, 636.575, 0.816
0.000000, -0.087266, 0.087266, 0.001523, 0.785398, 0.087266, 0.001523, 0.785398, 0.000000, -0.034907, 0.715585, -0.872665, 0.000000, 0.436332, 0.000000, 0.034907, 0.715585, -0.872665, 0.000000, 0.436332, 512.09, 512.068, 512.026, 482.094, 512.855, 636.487, 0.832
0.000000, -0.087266, 0.087266, 0.001523, 0.785398, 0.087266, 0.001523, 0.785398, 0.000000, -0.034907, 0.715585, -0.872665, 0.000000, 0.436332, 0.000000, 0.034907, 0.715585, -0.872665, 0.000000, 0.436332, 512.093, 512.088, 512.014, 481.877, 512.9, 636.425, 0.848
0.000000, -0.087266, 0.087266, 0.001523, 0.785398, 0.087266, 0.001523, 0.785398, 0.000000, -0.034907, 0.715585, -0.872665, 0.000000, 0.436332, 0.000000, 0.034907, 0.715585, -0.872665, 0.000000, 0.436332, 512.086, 512.099, 512.035, 481.638, 513.039, 636.353, 0.864
0.000000, -0.087266, 0.087266, 0.001523, 0.785398, 0.087266, 0.001523, 0.785398, 0.000000, -0.034907, 0.715585, -0.872665, 0.000000, 0.436332, 0.000000, 0.034907, 0.715585, -0.872665, 0.000000, 0.436332, 512.087, 512.103, 512.012, 481.524, 512.999, 636.321, 0.88
0.000000, -0.087266, 0.087266, 0.001523, 0.785398, 0.087266, 0.001523, 0.785398, 0.000000, -0.034907, 0.715585, -0.872665, 0.000000, 0.436332, 0.000000, 0.034907, 0.715585, -0.872665, 0.000000, 0.436332, 512.079, 512.102, 512.017, 481.354, 513.116, 636.268, 0.896
0.000000, -0.087266, 0.087266, 0.001523, 0.785398, 0.087266, 0.001523, 0.785398, 0.000000, -0.034907, 0.715585, -0.872665, 0.000000, 0.436332, 0.000000, 0.034907, 0.715585, -0.872665, 0.000000, 0.436332, 512.071, 512.096, 512.022, 481.255, 513.145, 636.241, 0.912
0.000000, -0.087266, 0.087266, 0.001523, 0.785398, 0.087266, 0.001523, 0.785398, 0.000000, -0.034907, 0.715585, -0.872665, 0.000000, 0.436332, 0.000000, 0.034907, 0.715585, -0.872665, 0.000000, 0.436332, 512.064, 512.087, 512.012, 481.196, 513.147, 636.221, 0.928
0.000000, -0.087266, 0.087266, 0.001523, 0.785398, 0.087266, 0.001523, 0.785398, 0.000000, -0.034907, 0.715585, -0.872665, 0.000000, 0.436332, 0.000000, 0.034907, 0.715585, -0.872665, 0.000000, 0.436332, 512.056, 512.077, 512.007, 481.142, 513.176, 636.205, 0.944
0.000000, -0.087266, 0.087266, 0.001523, 0.785398, 0.087266, 0.001523, 0.785398, 0.000000, -0.034907, 0.715585, -0.872665, 0.000000, 0.436332, 0.000000, 0.034907, 0.715585, -0.872665, 0.000000, 0.436332, 512.048, 512.065, 512.006, 481.106, 513.197, 636.195, 0.96
0.000000, -0.087266, 0.087266, 0.001523, 0.785398, 0.087266, 0.001523, 0.785398, 0.000000, -0.034907, 0.715585, -0.872665, 0.000000, 0.436332, 0.000000, 0.034907, 0.715585, -0.872665, 0.000000, 0.436332, 512.036, 512.054, 512.016, 481.087, 513.227, 636.185, 0.976
0.000000, -0.087266, 0.087266, 0.001523, 0.785398, 0.087266, 0.001523, 0.785398, 0.000000, -0.034907, 0.715585, -0.872665, 0.000000, 0.436332, 0.000000, 0.034907, 0.715585, -0.872665, 0.000000, 0.436332, 512.029, 512.042, 512.013, 481.105, 513.186, 636.196, 0.992
0.000000, -0.087266, 0.087266, 0.001523, 0.785398, 0.087266, 0.001523, 0.785398, 0.000000, -0.034907, 0.715585, -0.872665, 0.000000, 0.436332, 0.000000, 0.034907, 0.715585, -0.872665, 0.000000, 0.436332, 512.021, 512.032, 512.009, 481.119, 513.186, 636.196, 1.008
0.000000, -0.087266, 0.087266, 0.001523, 0.785398, 0.087266, 0.001523, 0.785398, 0.000000, -0.034907, 0.715585, -0.872665, 0.000000, 0.436332, 0.000000, 0.034907, 0.715585, -0.872665, 0.000000, 0.436332, 512.009, 512.023, 512.034, 481.104, 513.223, 636.191, 1.024
0.000000, -0.087266, 0.087266, 0.001523, 0.785398, 0.087266, 0.001523, 0.785398, 0.000000, -0.033231, 0.711396, -0.867080, 0.002094, 0.434238, 0.000000, 0.038587, 0.709594, -0.866223, 0.006919, 0.433114, 511.958, 511.815, 511.945, 481.221, 517.373, 641.586, 1.04
0.000000, -0.087266, 0.087266, 0.001523, 0.785398, 0.087266, 0.001523, 0.785398, 0.000000, -0.029880, 0.703019, -0.855910, 0.006283, 0.430049, 0.000000, 0.045949, 0.697611, -0.853338, 0.020758, 0.426677, 511.747, 511.515, 511.802, 481.004, 520.879, 645.877, 1.056
0.000000, -0.087266, 0.087266, 0.001523, 0.785398, 0.087266, 0.001523, 0.785398, 0.000000, -0.026529, 0.694641, -0.844740, 0.010472, 0.425860, 0.000000, 0.053311, 0.685628, -0.840454, 0.034597, 0.420240, 511.645, 511.257, 511.683, 480.853, 521.193, 643.64, 1.072
0.000000, -0.087266, 0.087266, 0.001523, 0.785398, 0.087266, 0.001523, 0.785398, 0.000000, -0.023178, 0.686263, -0.833570, 0.014661, 0.421671, 0.000000, 0.060673, 0.673645, -0.827570, 0.048436, 0.413803, 511.601, 511.021, 511.568, 480.751, 521.295, 642.108, 1.088
0.000000, -0.087266, 0.087266, 0.001523, 0.785398, 0.087266, 0.001523, 0.785398, 0.000000, -0.019827, 0.677886, -0.822399, 0.018850, 0.417482, 0.000000, 0.068034, 0.661662, -0.814685, 0.062275, 0.407367, 511.517, 510.8, 511.472, 480.695, 520.983, 640.847, 1.104
0.000000, -0.087266, 0.087266, 0.001523, 0.785398, 0.087266, 0.001523, 0.785398, 0.000000, -0.016476, 0.669508, -0.811229, 0.023038, 0.413294, 0.000000, 0.075396, 0.649679, -0.801801, 0.076113, 0.400930, 511.142, 510.518, 511.256, 478.861, 526.927, 640.694, 1.12
0.000000, -0.087266, 0.087266, 0.001523, 0.785398, 0.087266, 0.001523, 0.785398, 0.000000, -0.013125, 0.661131, -0.800059, 0.027227, 0.409105, 0.000000, 0.082758, 0.637696, -0.788916, 0.089952, 0.394493, 510.697, 510.25, 511.025, 479.233, 527.121, 639.351, 1.136
0.000000, -0.087266, 0.087266, 0.001523, 0.785398, 0.087266, 0.001523, 0.785398, 0.000000, -0.009774, 0.652753, -0.788889, 0.031416, 0.404916, 0.000000, 0.090120, 0.625713, -0.776032, 0.103791, 0.388056, 510.221, 509.996, 510.859, 479.561, 526.948, 638.109, 1.152
0.000000, -0.087266, 0.087266, 0.001523, 0.785398, 0.087266, 0.001523, 0.785398, 0.000000, -0.006423, 0.644376, -0.777719, 0.035605, 0.400727, 0.000000, 0.097481, 0.613730, -0.763147, 0.117630, 0.381620, 509.724, 509.722, 510.824, 479.305, 526.743, 637.013, 1.168
0.000000, -0.087266, 0.087266, 0.001523, 0.785398, 0.087266, 0.001523, 0.785398, 0.000000, -0.003072, 0.635998, -0.766549, 0.039793, 0.396539, 0.000000, 0.104843, 0.601747, -0.750263, 0.131469, 0.375183, 509.206, 509.505, 510.838, 480.436, 526.335, 636.818, 1.184
0.000000, -0.087266, 0.087266, 0.001523, 0.785398, 0.087266, 0.001523, 0.785398, 0.000000, 0.000279, 0.627620, -0.755379, 0.043982, 0.392350, 0.000000, 0.112205, 0.589764, -0.737379, 0.145308, 0.368746, 508.712, 509.336, 510.763, 481.367, 524.777, 636.556, 1.2
0.000000, -0.087266, 0.087266, 0.001523, 0.785398, 0.087266, 0.001523, 0.785398, 0.000000, 0.003630, 0.619243, -0.744209, 0.048171, 0.388161, 0.000000, 0.119567, 0.577781, -0.724494, 0.159146, 0.362310, 508.244, 509.185, 510.736, 481.869, 524.956, 636.148, 1.216
0.000000, -0.087266, 0.087266, 0.001523, 0.785398, 0.087266, 0.001523, 0.785398, 0.000000, 0.006981, 0.610865, -0.733039, 0.052360, 0.383972, 0.000000, 0.126928, 0.565798, -0.711610, 0.172985, 0.355873, 507.808, 509.107, 510.72, 483.576, 524.336, 636.029, 1.232
0.000000, -0.087266, 0.087266, 0.001523, 0.785398, 0.087266, 0.001523, 0.785398, 0.000000, 0.010332, 0.602488, -0.721868, 0.056549, 0.379783, 0.000000, 0.134290, 0.553815, -0.698725, 0.186824, 0.349436, 507.616, 509.209, 510.408, 486.394, 517.652, 643.398, 1.248
0.000000, -0.087266, 0.087266, 0.001523, 0.785398, 0.087266, 0.001523, 0.785398, 0.000000, 0.013683, 0.594110, -0.710698, 0.060737, 0.375595, 0.000000, 0.141652, 0.541832, -0.685841, 0.200663, 0.342999, 507.202, 509.375, 510.2, 487.768, 510.034, 632.067, 1.264
0.000000, -0.087266, 0.087266, 0.001523, 0.785398, 0.087266, 0.001523, 0.785398, 0.000000, 0.017034, 0.585732, -0.699528, 0.064926, 0.371406, 0.000000, 0.149013, 0.529849, -0.672957, 0.214502, 0.336563, 507.131, 509.494, 510.179, 487.691, 509.082, 634.022, 1.28
0.000000, -0.087266, 0.087266, 0.001523, 0.785398, 0.087266, 0.001523, 0.785398, 0.000000, 0.020385, 0.577355, -0.688358, 0.069115, 0.367217, 0.000000, 0.156375, 0.517866, -0.660072, 0.228340, 0.330126, 507.223, 509.8, 510.188, 491.646, 506.752, 634.921, 1.296
0.000000, -0.087266, 0.087266, 0.001523, 0.785398, 0.087266, 0.001523, 0.785398, 0.000000, 0.023736, 0.568977, -0.677188, 0.073304, 0.363028, 0.000000, 0.163737, 0.505883, -0.647188, 0.242179, 0.323689, 507.426, 509.964, 510.234, 488.642, 503.888, 635.432, 1.312
0.000000, -0.087266, 0.087266, 0.001523, 0.785398, 0.087266, 0.001523, 0.785398, 0.000000, 0.027088, 0.560600, -0.666018, 0.077493, 0.358839, 0.000000, 0.171099, 0.493900, -0.634303, 0.256018, 0.317252, 507.641, 510.113, 510.29, 489.824, 502.637, 636.186, 1.328
0.000000, -0.087266, 0.087266, 0.001523, 0.785398, 0.087266, 0.001523, 0.785398, 0.000000, 0.030439, 0.552222, -0.654848, 0.081681, 0.354651, 0.000000, 0.178460, 0.481917, -0.621419, 0.269857, 0.310816, 508.998, 510.27, 510.608, 489.258, 485.076, 639.204, 1.344
0.000000, -0.087266, 0.087266, 0.001523, 0.785398, 0.087266, 0.001523, 0.785398, 0.000000, 0.033790, 0.543845, -0.643678, 0.085870, 0.350462, 0.000000, 0.185822, 0.469934, -0.608534, 0.283696, 0.304379, 509.538, 510.384, 510.714, 489.222, 495.812, 634.367, 1.36
0.000000, -0.087266, 0.087266, 0.001523, 0.785398, 0.087266, 0.001523, 0.785398, 0.000000, 0.037141, 0.535467, -0.632508, 0.090059, 0.346273, 0.000000, 0.193184, 0.457951, -0.595650, 0.297535, 0.297942, 510.082, 510.611, 510.828, 488.17, 494.506, 636.364, 1.376
0.000000, -0.087266, 0.087266, 0.001523, 0.785398, 0.087266, 0.001523, 0.785398, 0.000000, 0.040492, 0.527089, -0.621337, 0.094248, 0.342084, 0.000000, 0.200546, 0.445968, -0.582766, 0.311373, 0.291505, 510.62, 510.884, 510.939, 487.569, 494.331, 635.971, 1.392
0.000000, -0.087266, 0.087266, 0.001523, 0.785398, 0.087266, 0.001523, 0.785398, 0.000000, 0.043843, 0.518712, -0.610167, 0.098436, 0.337896, 0.000000, 0.207907, 0.433985, -0.569881, 0.325212, 0.285069, 511.113, 511.163, 511.039, 488.045, 495.336, 636.607, 1.408
0.000000, -0.087266, 0.087266, 0.001523, 0.785398, 0.087266, 0.001523, 0.785398, 0.000000, 0.047194, 0.510334, -0.598997, 0.102625, 0.333707, 0.000000, 0.215269, 0.422002, -0.556997, 0.339051, 0.278632, 511.539, 511.118, 511.137, 488.608, 496.759, 637.379, 1.424
0.000000, -0.087266, 0.087266, 0.001523, 0.785398, 0.087266, 0.001523, 0.785398, 0.000000, 0.050545, 0.501957, -0.587827, 0.106814, 0.329518, 0.000000, 0.222631, 0.410019, -0.544112, 0.352890, 0.272195, 511.951, 511.333, 511.217, 488.236, 496.555, 636.087, 1.44
0.000000, -0.087266, 0.087266, 0.001523, 0.785398, 0.087266, 0.001523, 0.785398, 0.000000, 0.053896, 0.493579, -0.576657, 0.111003, 0.325329, 0.000000, 0.229993, 0.398036, -0.531228, 0.366729, 0.265758, 512.099, 509.994, 511.324, 492.902, 503.103, 642.6, 1.456
0.000000, -0.087266, 0.087266, 0.001523, 0.785398, 0.087266, 0.001523, 0.785398, 0.000000, 0.057247, 0.485201, -0.565487, 0.115192, 0.321140, 0.000000, 0.237354, 0.386053, -0.518344, 0.380567, 0.259322, 512.107, 508.278, 511.426, 494.802, 505.809, 641.805, 1.472
0.000000, -0.087266, 0.087266, 0.001523, 0.785398, 0.087266, 0.001523, 0.785398, 0.000000, 0.060598, 0.476824, -0.554317, 0.119380, 0.316952, 0.000000, 0.244716, 0.374070, -0.505459, 0.394406, 0.252885, 511.892, 508.814, 511.418, 477.234, 509.488, 624.306, 1.488
0.000000, -0.087266, 0.087266, 0.001523, 0.785398, 0.087266, 0.001523, 0.785398, 0.000000, 0.063949, 0.468446, -0.543147, 0.123569, 0.312763, 0.000000, 0.252078, 0.362087, -0.492575, 0.408245, 0.246448, 511.762, 508.987, 511.41, 479.522, 509.311, 636.255, 1.504
0.000000, -0.087266, 0.087266, 0.001523, 0.785398, 0.087266, 0.001523, 0.785398, 0.000000, 0.067300, 0.460069, -0.531977, 0.127758, 0.308574, 0.000000, 0.259439, 0.350104, -0.479690, 0.422084, 0.240012, 511.679, 509.153, 511.403, 481.066, 508.206, 637.513, 1.52
0.000000, -0.087266, 0.087266, 0.001523, 0.785398, 0.087266, 0.001523, 0.785398, 0.000000, 0.070651, 0.451691, -0.520806, 0.131947, 0.304385, 0.000000, 0.266801, 0.338121, -0.466806, 0.435923, 0.233575, 511.645, 509.351, 511.397, 482.509, 507.037, 637.705, 1.536
0.000000, -0.087266, 0.087266, 0.001523, 0.785398, 0.087266, 0.001523, 0.785398, 0.000000, 0.074002, 0.443314, -0.509636, 0.136135, 0.300197, 0.000000, 0.274163, 0.326138, -0.453921, 0.449762, 0.227138, 511.657, 509.59, 511.393, 483.808, 505.888, 637.829, 1.552
0.000000, -0.087266, 0.087266, 0.001523, 0.785398, 0.087266, 0.001523, 0.785398, 0.000000, 0.077353, 0.434936, -0.498466, 0.140324, 0.296008, 0.000000, 0.281525, 0.314155, -0.441037, 0.463600, 0.220701, 511.714, 509.864, 511.392, 484.574, 504.794, 637.936, 1.568
0.000000, -0.087266, 0.087266, 0.001523, 0.785398, 0.087266, 0.001523, 0.785398, 0.000000, 0.080704, 0.426558, -0.487296, 0.144513, 0.291819, 0.000000, 0.288886, 0.302172, -0.428153, 0.477439, 0.214265, 511.785, 509.957, 511.4, 487.626, 504.247, 637.083, 1.584
0.000000, -0.087266, 0.087266, 0.001523, 0.785398, 0.087266, 0.001523, 0.785398, 0.000000, 0.084055, 0.418181, -0.476126, 0.148702, 0.287630, 0.000000, 0.296248, 0.290189, -0.415268, 0.491278, 0.207828, 511.855, 509.871, 511.425, 489.297, 504.051, 636.191, 1.6
0.000000, -0.087266, 0.087266, 0.001523, 0.785398, 0.087266, 0.001523, 0.785398, 0.000000, 0.087406, 0.409803, -0.464956, 0.152891, 0.283441, 0.000000, 0.303610, 0.278206, -0.402384, 0.505117, 0.201391, 511.929, 509.816, 511.447, 490.229, 503.917, 636.32, 1.616
0.000000, -0.087266, 0.087266, 0.001523, 0.785398, 0.087266, 0.001523, 0.785398, 0.000000, 0.090757, 0.401426, -0.453786, 0.157079, 0.279253, 0.000000, 0.310972, 0.266223, -0.389499, 0.518956, 0.194954, 512.008, 509.785, 511.474, 490.725, 503.796, 636.485, 1.632
0.000000, -0.087266, 0.087266, 0.001523, 0.785398, 0.087266, 0.001523, 0.785398, 0.000000, 0.094108, 0.393048, -0.442616, 0.161268, 0.275064, 0.000000, 0.318333, 0.254240, -0.376615, 0.532794, 0.188518, 512.056, 509.861, 511.429, 497.388, 504.519, 636.252, 1.648
0.000000, -0.087266, 0.087266, 0.001523, 0.785398, 0.087266, 0.001523, 0.785398, 0.000000, 0.097459, 0.384670, -0.431446, 0.165457, 0.270875, 0.000000, 0.325695, 0.242257, -0.363731, 0.546633, 0.182081, 512.107, 510.149, 511.421, 493.92, 504.527, 637.596, 1.664
0.000000, -0.087266, 0.087266, 0.001523, 0.785398, 0.087266, 0.001523, 0.785398, 0.000000, 0.100810, 0.376293, -0.420275, 0.169646, 0.266686, 0.000000, 0.333057, 0.230274, -0.350846, 0.560472, 0.175644, 512.148, 510.461, 511.406, 494.372, 504.724, 638.049, 1.68
0.000000, -0.087266, 0.087266, 0.001523, 0.785398, 0.087266, 0.001523, 0.785398, 0.000000, 0.104161, 0.367915, -0.409105, 0.173835, 0.262497, 0.000000, 0.340419, 0.218291, -0.337962, 0.574311, 0.169207, 512.162, 510.552, 511.434, 493.88, 505.142, 637.658, 1.696
0.000000, -0.087266, 0.087266, 0.001523, 0.785398, 0.087266, 0.001523, 0.785398, 0.000000, 0.107512, 0.359538, -0.397935, 0.178023, 0.258309, 0.000000, 0.347780, 0.206308, -0.325077, 0.588150, 0.162771, 512.181, 510.639, 511.46, 493.749, 505.064, 637.441, 1.712
0.000000, -0.087266, 0.087266, 0.001523, 0.785398, 0.087266, 0.001523, 0.785398, 0.000000, 0.110863, 0.351160, -0.386765, 0.182212, 0.254120, 0.000000, 0.355142, 0.194325, -0.312193, 0.601988, 0.156334, 512.211, 510.718, 511.49, 493.547, 504.924, 637.408, 1.728
0.000000, -0.087266, 0.087266, 0.001523, 0.785398, 0.087266, 0.001523, 0.785398, 0.000000, 0.114214, 0.342783, -0.375595, 0.186401, 0.249931, 0.000000, 0.362504, 0.182342, -0.299308, 0.615827, 0.149897, 512.251, 510.812, 511.506, 493.742, 504.764, 637.441, 1.744
0.000000, -0.087266, 0.087266, 0.001523, 0.785398, 0.087266, 0.001523, 0.785398, 0.000000, 0.117565, 0.334405, -0.364425, 0.190590, 0.245742, 0.000000, 0.369866, 0.170359, -0.286424, 0.629666, 0.143461, 512.303, 510.943, 511.511, 494.338, 504.606, 637.486, 1.76
0.000000, -0.087266, 0.087266, 0.001523, 0.785398, 0.087266, 0.001523, 0.785398, 0.000000, 0.120916, 0.326027, -0.353255, 0.194778, 0.241554, 0.000000, 0.377227, 0.158376, -0.273540, 0.643505, 0.137024, 512.362, 511.1, 511.51, 494.848, 504.555, 637.594, 1.776
0.000000, -0.087266, 0.087266, 0.001523, 0.785398, 0.087266, 0.001523, 0.785398, 0.000000, 0.124267, 0.317650, -0.342085, 0.198967, 0.237365, 0.000000, 0.384589, 0.146393, -0.260655, 0.657344, 0.130587, 512.415, 511.261, 511.501, 495.069, 504.821, 637.798, 1.792
0.000000, -0.087266, 0.087266, 0.001523, 0.785398, 0.087266, 0.001523, 0.785398, 0.000000, 0.127619, 0.309272, -0.330915, 0.203156, 0.233176, 0.000000, 0.391951, 0.134410, -0.247771, 0.671183, 0.124150, 512.456, 511.431, 511.493, 495.262, 505.114, 637.838, 1.808
0.000000, -0.087266, 0.087266, 0.001523, 0.785398, 0.087266, 0.001523, 0.785398, 0.000000, 0.130970, 0.300895, -0.319744, 0.207345, 0.228987, 0.000000, 0.399312, 0.122427, -0.234886, 0.685021, 0.117714, 512.486, 511.61, 511.476, 495.459, 505.388, 637.831, 1.824
0.000000, -0.087266, 0.087266, 0.001523, 0.785398, 0.087266, 0.001523, 0.785398, 0.000000, 0.134321, 0.292517, -0.308574, 0.211534, 0.224798, 0.000000, 0.406674, 0.110444, -0.222002, 0.698860, 0.111277, 512.505, 511.799, 511.457, 495.654, 505.669, 637.805, 1.84
0.000000, -0.087266, 0.087266, 0.001523, 0.785398, 0.087266, 0.001523, 0.785398, 0.000000, 0.137672, 0.284139, -0.297404, 0.215722, 0.220610, 0.000000, 0.414036, 0.098461, -0.209118, 0.712699, 0.104840, 512.512, 511.998, 511.434, 495.848, 505.946, 637.766, 1.856
0.000000, -0.087266, 0.087266, 0.001523, 0.785398, 0.087266, 0.001523, 0.785398, 0.000000, 0.141023, 0.275762, -0.286234, 0.219911, 0.216421, 0.000000, 0.421398, 0.086478, -0.196233, 0.726538, 0.098403, 512.558, 512.24, 511.401, 496.571, 505.174, 637.395, 1.872
0.000000, -0.087266, 0.087266, 0.001523, 0.785398, 0.087266, 0.001523, 0.785398, 0.000000, 0.144374, 0.267384, -0.275064, 0.224100, 0.212232, 0.000000, 0.428759, 0.074495, -0.183349, 0.740377, 0.091967, 512.587, 512.487, 511.367, 496.744, 505.474, 637.747, 1.888
0.000000, -0.087266, 0.087266, 0.001523, 0.785398, 0.087266, 0.001523, 0.785398, 0.000000, 0.147725, 0.259007, -0.263894, 0.228289, 0.208043, 0.000000, 0.436121, 0.062512, -0.170464, 0.754215, 0.085530, 512.605, 512.744, 511.332, 496.91, 505.756, 637.746, 1.904
0.000000, -0.087266, 0.087266, 0.001523, 0.785398, 0.087266, 0.001523, 0.785398, 0.000000, 0.151076, 0.250629, -0.252724, 0.232478, 0.203854, 0.000000, 0.443483, 0.050529, -0.157580, 0.768054, 0.079093, 512.588, 512.905, 511.544, 477.114, 505.919, 636.352, 1.92
0.000000, -0.087266, 0.087266, 0.001523, 0.785398, 0.087266, 0.001523, 0.785398, 0.000000, 0.154427, 0.242252, -0.241554, 0.236666, 0.199666, 0.000000, 0.450845, 0.038546, -0.144695, 0.781893, 0.072656, 512.588, 513.02, 511.516, 488.193, 506.157, 637.033, 1.936
0.000000, -0.087266, 0.087266, 0.001523, 0.785398, 0.087266, 0.001523, 0.785398, 0.000000, 0.157778, 0.233874, -0.230384, 0.240855, 0.195477, 0.000000, 0.458206, 0.026563, -0.131811, 0.795732, 0.066220, 512.578, 513.126, 511.466, 488.253, 506.416, 636.775, 1.952
0.000000, -0.087266, 0.087266, 0.001523, 0.785398, 0.087266, 0.001523, 0.785398, 0.000000, 0.161129, 0.225496, -0.219213, 0.245044, 0.191288, 0.000000, 0.465568, 0.014580, -0.118927, 0.809571, 0.059783, 512.167, 513.211, 511.337, 488.257, 513.604, 634.777, 1.968
0.000000, -0.087266, 0.087266, 0.001523, 0.785398, 0.087266, 0.001523, 0.785398, 0.000000, 0.164480, 0.217119, -0.208043, 0.249233, 0.187099, 0.000000, 0.472930, 0.002597, -0.106042, 0.823410, 0.053346, 512.014, 513.302, 511.282, 487.994, 508.134, 636.394, 1.984
0.000000, -0.087266, 0.087266, 0.001523, 0.785398, 0.087266, 0.001523, 0.785398, 0.000000, 0.167831, 0.208741, -0.196873, 0.253421, 0.182911, 0.000000, 0.480292, -0.009386, -0.093158, 0.837248, 0.046909, 511.914, 513.383, 511.215, 488.025, 508.423, 636.585, 2
0.000000, -0.087266, 0.087266, 0.001523, 0.785398, 0.087266, 0.001523, 0.785398, 0.000000, 0.171182, 0.200364, -0.185703, 0.257610, 0.178722, 0.000000, 0.487653, -0.021369, -0.080273, 0.851087, 0.040473, 511.804, 513.457, 511.149, 488.08, 508.653, 636.573, 2.016
0.000000, -0.087266, 0.087266, 0.001523, 0.785398, 0.087266, 0.001523, 0.785398, 0.000000, 0.174533, 0.191986, -0.174533, 0.261799, 0.174533, 0.000000, 0.495015, -0.033352, -0.067389, 0.864926, 0.034036, 511.684, 513.525, 511.086, 488.157, 508.836, 636.55, 2.032
0.000000, -0.087266, 0.087266, 0.001523, 0.785398, 0.087266, 0.001523, 0.785398, 0.000000, 0.174533, 0.191986, -0.174533, 0.261799, 0.174533, 0.000000, 0.495024, -0.040597, -0.082423, 0.864948, 0.041825, 511.264, 512.75, 511.178, 495.538, 505.353, 639.258, 2.048
0.000000, -0.087266, 0.087266, 0.001523, 0.785398, 0.087266, 0.001523, 0.785398, 0.000000, 0.174533, 0.191986, -0.174533, 0.261799, 0.174533, 0.000000, 0.495032, -0.046679, -0.095419, 0.864969, 0.048739, 510.845, 512.584, 511.276, 486.084, 505.597, 635.66, 2.064
0.000000, -0.087266, 0.087266, 0.001523, 0.785398, 0.087266, 0.001523, 0.785398, 0.000000, 0.174533, 0.191986, -0.174533, 0.261799, 0.174533, 0.000000, 0.495040, -0.051267, -0.105795, 0.864989, 0.054527, 510.464, 512.522, 511.315, 485.467, 506.049, 635.667, 2.08
0.000000, -0.087266, 0.087266, 0.001523, 0.785398, 0.087266, 0.001523, 0.785398, 0.000000, 0.174533, 0.191986, -0.174533, 0.261799, 0.174533, 0.000000, 0.495047, -0.054527, -0.114011, 0.865006, 0.059483, 510.11, 512.509, 511.316, 485.535, 506.5, 635.92, 2.096
0.000000, -0.087266, 0.087266, 0.001523, 0.785398, 0.087266, 0.001523, 0.785398, 0.000000, 0.174533, 0.191986, -0.174533, 0.261799, 0.174533, 0.000000, 0.495053, -0.057291, -0.121451, 0.865023, 0.064159, 509.775, 512.509, 511.3, 485.77, 506.808, 636.112, 2.112
0.000000, -0.087266, 0.087266, 0.001523, 0.785398, 0.087266, 0.001523, 0.785398, 0.000000, 0.174533, 0.191986, -0.174533, 0.261799, 0.174533, 0.000000, 0.495059, -0.059381, -0.127862, 0.865037, 0.068481, 509.454, 512.518, 511.263, 486.082, 507.042, 636.243, 2.128
0.000000, -0.087266, 0.087266, 0.001523, 0.785398, 0.087266, 0.001523, 0.785398, 0.000000, 0.174533, 0.191986, -0.174533, 0.261799, 0.174533, 0.000000, 0.495064, -0.060994, -0.133601, 0.865052, 0.072607, 509.14, 512.524, 511.225, 486.432, 507.228, 636.315, 2.144
0.000000, -0.087266, 0.087266, 0.001523, 0.785398, 0.087266, 0.001523, 0.785398, 0.000000, 0.174533, 0.191986, -0.174533, 0.261799, 0.174533, 0.000000, 0.495070, -0.062380, -0.139031, 0.865067, 0.076650, 508.83, 512.52, 511.179, 486.775, 507.336, 636.344, 2.16
0.000000, -0.087266, 0.087266, 0.001523, 0.785398, 0.087266, 0.001523, 0.785398, 0.000000, 0.174533, 0.191986, -0.174533, 0.261799, 0.174533, 0.000000, 0.495076, -0.063466, -0.144091, 0.865081, 0.080623, 508.521, 512.507, 511.134, 487.087, 507.413, 636.344, 2.176
0.000000, -0.087266, 0.087266, 0.001523, 0.785398, 0.087266, 0.001523, 0.785398, 0.000000, 0.174533, 0.191986, -0.174533, 0.261799, 0.174533, 0.000000, 0.495082, -0.064466, -0.149096, 0.865095, 0.084630, 509.251, 512.516, 511.271, 487.072, 491.961, 641.153, 2.192
0.000000, -0.087266, 0.087266, 0.001523, 0.785398, 0.087266, 0.001523, 0.785398, 0.000000, 0.174533, 0.191986, -0.174533, 0.261799, 0.174533, 0.000000, 0.495087, -0.065416, -0.154085, 0.865110, 0.088668, 509.177, 512.488, 511.27, 487.516, 502.107, 637.647, 2.208
0.000000, -0.087266, 0.087266, 0.001523, 0.785398, 0.087266, 0.001523, 0.785398, 0.000000, 0.174533, 0.191986, -0.174533, 0.261799, 0.174533, 0.000000, 0.495094, -0.066423, -0.159294, 0.865127, 0.092871, 509.143, 512.45, 511.282, 487.736, 501.899, 637.309, 2.224
0.000000, -0.087266, 0.087266, 0.001523, 0.785398, 0.087266, 0.001523, 0.785398, 0.000000, 0.174533, 0.191986, -0.174533, 0.261799, 0.174533, 0.000000, 0.495101, -0.067550, -0.164766, 0.865146, 0.097215, 509.139, 512.404, 511.309, 487.899, 501.193, 637.254, 2.24
0.000000, -0.087266, 0.087266, 0.001523, 0.785398, 0.087266, 0.001523, 0.785398, 0.000000, 0.174533, 0.191986, -0.174533, 0.261799, 0.174533, 0.000000, 0.495109, -0.068798, -0.170500, 0.865165, 0.101701, 509.158, 512.348, 511.325, 488.006, 500.508, 637.256, 2.256
0.000000, -0.087266, 0.087266, 0.001523, 0.785398, 0.087266, 0.001523, 0.785398, 0.000000, 0.174533, 0.191986, -0.174533, 0.261799, 0.174533, 0.000000, 0.495117, -0.070420, -0.176959, 0.865188, 0.106537, 509.198, 512.284, 511.362, 488.059, 499.864, 637.26, 2.272
0.000000, -0.087266, 0.087266, 0.001523, 0.785398, 0.087266, 0.001523, 0.785398, 0.000000, 0.174533, 0.191986, -0.174533, 0.261799, 0.174533, 0.000000, 0.495127, -0.072268, -0.183835, 0.865214, 0.111565, 509.259, 512.212, 511.39, 488.092, 499.204, 637.273, 2.288
0.000000, -0.087266, 0.087266, 0.001523, 0.785398, 0.087266, 0.001523, 0.785398, 0.000000, 0.174533, 0.191986, -0.174533, 0.261799, 0.174533, 0.000000, 0.495138, -0.074451, -0.191325, 0.865242, 0.116873, 509.338, 512.134, 511.429, 488.098, 498.596, 637.278, 2.304
0.000000, -0.087266, 0.087266, 0.001523, 0.785398, 0.087266, 0.001523, 0.785398, 0.000000, 0.174533, 0.191986, -0.174533, 0.261799, 0.174533, 0.000000, 0.495151, -0.077157, -0.199745, 0.865275, 0.122588, 509.435, 512.047, 511.474, 488.084, 498.001, 637.279, 2.32
0.000000, -0.087266, 0.087266, 0.001523, 0.785398, 0.087266, 0.001523, 0.785398, 0.000000, 0.174533, 0.191986, -0.174533, 0.261799, 0.174533, 0.000000, 0.495166, -0.080165, -0.208695, 0.865312, 0.128530, 509.546, 511.957, 511.52, 488.062, 497.452, 637.287, 2.336
0.000000, -0.087266, 0.087266, 0.001523, 0.785398, 0.087266, 0.001523, 0.785398, 0.000000, 0.174533, 0.191986, -0.174533, 0.261799, 0.174533, 0.000000, 0.495182, -0.083719, -0.218591, 0.865354, 0.134872, 509.672, 511.876, 511.564, 488.131, 496.928, 637.293, 2.352
0.000000, -0.087266, 0.087266, 0.001523, 0.785398, 0.087266, 0.001523, 0.785398, 0.000000, 0.174533, 0.191986, -0.174533, 0.261799, 0.174533, 0.000000, 0.495201, -0.087812, -0.229404, 0.865402, 0.141591, 509.811, 511.778, 511.608, 488.547, 496.465, 637.415, 2.368
0.000000, -0.087266, 0.087266, 0.001523, 0.785398, 0.087266, 0.001523, 0.785398, 0.000000, 0.174533, 0.191986, -0.174533, 0.261799, 0.174533, 0.000000, 0.495221, -0.092253, -0.240805, 0.865455, 0.148551, 509.96, 511.674, 511.654, 488.682, 496.058, 637.455, 2.384
0.000000, -0.087266, 0.087266, 0.001523, 0.785398, 0.087266, 0.001523, 0.785398, 0.000000, 0.174533, 0.191986, -0.174533, 0.261799, 0.174533, 0.000000, 0.495245, -0.097415, -0.253403, 0.865517, 0.155988, 510.117, 511.55, 511.708, 488.849, 495.687, 637.497, 2.4
0.000000, -0.087266, 0.087266, 0.001523, 0.785398, 0.087266, 0.001523, 0.785398, 0.000000, 0.174533, 0.191986, -0.174533, 0.261799, 0.174533, 0.000000, 0.495272, -0.103049, -0.266776, 0.865585, 0.163726, 510.28, 511.417, 511.768, 488.954, 495.381, 637.529, 2.416
0.000000, -0.087266, 0.087266, 0.001523, 0.785398, 0.087266, 0.001523, 0.785398, 0.000000, 0.174533, 0.191986, -0.174533, 0.261799, 0.174533, 0.000000, 0.495301, -0.109052, -0.280751, 0.865659, 0.171698, 510.448, 511.279, 511.825, 489.058, 495.122, 637.556, 2.432
0.000000, -0.087266, 0.087266, 0.001523, 0.785398, 0.087266, 0.001523, 0.785398, 0.000000, 0.174533, 0.191986, -0.174533, 0.261799, 0.174533, 0.000000, 0.495335, -0.115904, -0.296088, 0.865746, 0.180183, 510.62, 511.118, 511.89, 489.208, 494.907, 637.594, 2.448
0.000000, -0.087266, 0.087266, 0.001523, 0.785398, 0.087266, 0.001523, 0.785398, 0.000000, 0.174533, 0.191986, -0.174533, 0.261799, 0.174533, 0.000000, 0.495371, -0.123127, -0.312010, 0.865840, 0.188883, 510.793, 510.954, 511.958, 489.279, 494.764, 637.619, 2.464
0.000000, -0.087266, 0.087266, 0.001523, 0.785398, 0.087266, 0.001523, 0.785398, 0.000000, 0.174533, 0.191986, -0.174533, 0.261799, 0.174533, 0.000000, 0.495411, -0.130825, -0.328684, 0.865942, 0.197858, 510.967, 510.781, 512.024, 489.395, 494.656, 637.646, 2.48
0.000000, -0.087266, 0.087266, 0.001523, 0.785398, 0.087266, 0.001523, 0.785398, 0.000000, 0.174533, 0.191986, -0.174533, 0.261799, 0.174533, 0.000000, 0.495457, -0.139255, -0.346496, 0.866060, 0.207241, 511.14, 510.591, 512.097, 489.531, 494.602, 637.678, 2.496
0.000000, -0.087266, 0.087266, 0.001523, 0.785398, 0.087266, 0.001523, 0.785398, 0.000000, 0.174533, 0.191986, -0.174533, 0.261799, 0.174533, 0.000000, 0.495510, -0.142246, -0.364171, 0.866197, 0.221924, 511.304, 510.533, 512.125, 489.234, 494.753, 637.581, 2.512
0.000000, -0.087266, 0.087266, 0.001523, 0.785398, 0.087266, 0.001523, 0.785398, 0.000000, 0.174533, 0.191986, -0.174533, 0.261799, 0.174533, 0.000000, 0.495574, -0.115803, -0.329441, 0.866360, 0.246504, 511.443, 510.835, 512.069, 489.463, 494.961, 637.716, 2.528
0.000000, -0.087266, 0.087266, 0.001523, 0.785398, 0.087266, 0.001523, 0.785398, 0.000000, 0.174533, 0.191986, -0.174533, 0.261799, 0.174533, 0.000000, 0.495551, 0.132348, 0.372949, 0.866302, 0.240601, 511.567, 511.06, 512.02, 489.621, 496.417, 636.677, 2.544
0.000000, -0.087266, 0.087266, 0.001523, 0.785398, 0.087266, 0.001523, 0.785398, 0.000000, 0.174533, 0.191986, -0.174533, 0.261799, 0.174533, 0.000000, 0.495391, 0.128871, 0.320568, 0.865890, 0.191697, 511.513, 514.091, 510.301, 481.661, 498.877, 635.531, 2.56
0.000000, -0.087266, 0.087266, 0.001523, 0.785398, 0.087266, 0.001523, 0.785398, 0.000000, 0.174533, 0.191986, -0.174533, 0.261799, 0.174533, 0.000000, 0.495289, 0.142302, 0.279731, 0.865630, 0.137428, 511.549, 516.848, 508.741, 478.298, 496.552, 632.42, 2.576
0.000000, -0.087266, 0.087266, 0.001523, 0.785398, 0.087266, 0.001523, 0.785398, 0.000000, 0.174533, 0.191986, -0.174533, 0.261799, 0.174533, 0.000000, 0.495236, 0.162763, 0.240359, 0.865494, 0.077595, 511.774, 517.565, 507.29, 490.147, 494.486, 646.959, 2.592
0.000000, -0.087266, 0.087266, 0.001523, 0.785398, 0.087266, 0.001523, 0.785398, 0.000000, 0.174533, 0.191986, -0.174533, 0.261799, 0.174533, 0.000000, 0.495233, 0.180437, 0.191136, 0.865486, 0.018645, 511.955, 516.582, 507.226, 505.14, 492.963, 637.019, 2.608
0.000000, -0.087266, 0.087266, 0.001523, 0.785398, 0.087266, 0.001523, 0.785398, 0.000000, 0.174533, 0.191986, -0.174533, 0.261799, 0.174533, 0.000000, 0.495268, 0.349810, 0.106205, 0.865586, 0.061023, 512.128, 515.359, 506.238, 515.201, 493.28, 637.095, 2.624
0.000000, -0.087266, 0.087266, 0.001523, 0.785398, 0.087266, 0.001523, 0.785398, 0.000000, 0.164061, 0.218166, -0.209440, 0.248709, 0.187623, 0.000000, 0.472278, 0.981429, -0.058298, 0.822426, 0.114873, 511.5, 514.946, 508.328, 499.848, 482.525, 635.213, 2.64
0.000000, -0.087266, 0.087266, 0.001523, 0.785398, 0.087266, 0.001523, 0.785398, 0.000000, 0.143117, 0.270526, -0.279253, 0.222529, 0.213803, 0.000000, 0.426239, 0.953446, -0.144021, 0.735855, 0.148711, 510.544, 515.39, 510.107, 492.284, 478.043, 630.506, 2.656
0.000000, -0.087266, 0.087266, 0.001523, 0.785398, 0.087266, 0.001523, 0.785398, 0.000000, 0.122173, 0.322886, -0.349066, 0.196349, 0.239983, 0.000000, 0.380200, 0.925462, -0.229744, 0.649284, 0.182549, 509.574, 515.493, 510.982, 499.867, 474.859, 629.376, 2.672
0.000000, -0.087266, 0.087266, 0.001523, 0.785398, 0.087266, 0.001523, 0.785398, 0.000000, 0.101229, 0.375246, -0.418879, 0.170169, 0.266163, 0.000000, 0.334161, 0.897478, -0.315467, 0.562713, 0.216386, 508.85, 516.375, 512.598, 477.043, 477.5, 642.933, 2.688
0.000000, -0.087266, 0.087266, 0.001523, 0.785398, 0.087266, 0.001523, 0.785398, 0.000000, 0.080285, 0.427606, -0.488692, 0.143989, 0.292343, 0.000000, 0.288122, 0.869495, -0.401190, 0.476142, 0.250224, 508.008, 516.755, 513.215, 484.809, 474.712, 632.852, 2.704
0.000000, -0.087266, 0.087266, 0.001523, 0.785398, 0.087266, 0.001523, 0.785398, 0.000000, 0.059341, 0.479965, -0.558506, 0.117810, 0.318522, 0.000000, 0.242083, 0.841511, -0.486912, 0.389570, 0.284062, 506.82, 519.138, 514.314, 452.274, 472.526, 610.21, 2.72
0.000000, -0.087266, 0.087266, 0.001523, 0.785398, 0.087266, 0.001523, 0.785398, 0.000000, 0.038397, 0.532325, -0.628319, 0.091630, 0.344702, 0.000000, 0.196044, 0.813528, -0.572635, 0.302999, 0.317900, 506.575, 520.344, 515.443, 461.211, 474.786, 615.391, 2.736
0.000000, -0.087266, 0.087266, 0.001523, 0.785398, 0.087266, 0.001523, 0.785398, 0.000000, 0.017453, 0.584685, -0.698132, 0.065450, 0.370882, 0.000000, 0.150004, 0.785544, -0.658358, 0.216428, 0.351738, 505.677, 518.208, 518.665, 484.373, 483.622, 618.968, 2.752
0.000000, -0.087266, 0.087266, 0.001523, 0.785398, 0.087266, 0.001523, 0.785398, 0.000000, -0.003491, 0.637045, -0.767945, 0.039270, 0.397062, 0.000000, 0.103965, 0.757560, -0.744081, 0.129857, 0.385575, 504.647, 517.15, 521.793, 490.706, 481.949, 628.482, 2.768
0.000000, -0.087266, 0.087266, 0.001523, 0.785398, 0.087266, 0.001523, 0.785398, 0.000000, -0.024435, 0.689405, -0.837758, 0.013090, 0.423242, 0.000000, 0.057926, 0.729577, -0.829804, 0.043286, 0.419413, 503.531, 516.558, 524.405, 476.239, 479.966, 617.126, 2.784
0.000000, -0.087266, 0.087266, 0.001523, 0.785398, 0.087266, 0.001523, 0.785398, 0.000000, -0.034907, 0.715585, -0.872665, 0.000000, 0.436332, 0.000000, 0.034907, 0.715585, -0.872665, 0.000000, 0.436332, 504.538, 516.085, 523.94, 483.116, 487.2, 623.407, 2.8
0.000000, -0.087266, 0.087266, 0.001523, 0.785398, 0.087266, 0.001523, 0.785398, 0.000000, -0.034907, 0.715585, -0.872665, 0.000000, 0.436332, 0.000000, 0.034907, 0.715585, -0.872665, 0.000000, 0.436332, 507.01, 517.038, 523.43, 479.612, 492.866, 630.438, 2.816
0.000000, -0.087266, 0.087266, 0.001523, 0.785398, 0.087266, 0.001523, 0.785398, 0.000000, -0.034907, 0.715585, -0.872665, 0.000000, 0.436332, 0.000000, 0.034907, 0.715585, -0.872665, 0.000000, 0.436332, 508.763, 519.56, 521.454, 474.506, 481.798, 635.869, 2.832
0.000000, -0.087266, 0.087266, 0.001523, 0.785398, 0.087266, 0.001523, 0.785398, 0.000000, -0.034907, 0.715585, -0.872665, 0.000000, 0.436332, 0.000000, 0.034907, 0.715585, -0.872665, 0.000000, 0.436332, 510.522, 519.907, 519.315, 480.911, 479.079, 642.715, 2.848
0.000000, -0.087266, 0.087266, 0.001523, 0.785398, 0.087266, 0.001523, 0.785398, 0.000000, -0.034907, 0.715585, -0.872665, 0.000000, 0.436332, 0.000000, 0.034907, 0.715585, -0.872665, 0.000000, 0.436332, 512.296, 520.294, 517.187, 480.13, 477.527, 642.957, 2.864
0.000000, -0.087266, 0.087266, 0.001523, 0.785398, 0.087266, 0.001523, 0.785398, 0.000000, -0.034907, 0.715585, -0.872665, 0.000000, 0.436332, 0.000000, 0.034907, 0.715585, -0.872665, 0.000000, 0.436332, 515.825, 521.624, 516.514, 474.485, 499.686, 634.029, 2.88
0.000000, -0.087266, 0.087266, 0.001523, 0.785398, 0.087266, 0.001523, 0.785398, 0.000000, -0.034907, 0.715585, -0.872665, 0.000000, 0.436332, 0.000000, 0.034907, 0.715585, -0.872665, 0.000000, 0.436332, 516.747, 522.517, 515.471, 477.749, 494.448, 635.057, 2.896
0.000000, -0.087266, 0.087266, 0.001523, 0.785398, 0.087266, 0.001523, 0.785398, 0.000000, -0.034907, 0.715585, -0.872665, 0.000000, 0.436332, 0.000000, 0.034907, 0.715585, -0.872665, 0.000000, 0.436332, 518.205, 521.654, 513.964, 479.411, 495.861, 637.731, 2.912
0.000000, -0.087266, 0.087266, 0.001523, 0.785398, 0.087266, 0.001523, 0.785398, 0.000000, -0.034907, 0.715585, -0.872665, 0.000000, 0.436332, 0.000000, 0.034907, 0.715585, -0.872665, 0.000000, 0.436332, 519.117, 519.779, 514.036, 480.253, 491.688, 637.663, 2.928
0.000000, -0.087266, 0.087266, 0.001523, 0.785398, 0.087266, 0.001523, 0.785398, 0.000000, -0.034907, 0.715585, -0.872665, 0.000000, 0.436332, 0.000000, 0.034907, 0.715585, -0.872665, 0.000000, 0.436332, 519.892, 518.11, 514.277, 479.859, 490.716, 637.592, 2.944
0.000000, -0.087266, 0.087266, 0.001523, 0.785398, 0.087266, 0.001523, 0.785398, 0.000000, -0.034907, 0.715585, -0.872665, 0.000000, 0.436332, 0.000000, 0.034907, 0.715585, -0.872665, 0.000000, 0.436332, 520.667, 516.144, 514.669, 478.67, 489.563, 636.654, 2.96
0.000000, -0.087266, 0.087266, 0.001523, 0.785398, 0.087266, 0.001523, 0.785398, 0.000000, -0.034907, 0.715585, -0.872665, 0.000000, 0.436332, 0.000000, 0.034907, 0.715585, -0.872665, 0.000000, 0.436332, 521.45, 514.182, 515.082, 477.831, 488.747, 636.451, 2.976
0.000000, -0.087266, 0.087266, 0.001523, 0.785398, 0.087266, 0.001523, 0.785398, 0.000000, -0.034907, 0.715585, -0.872665, 0.000000, 0.436332, 0.000000, 0.034907, 0.715585, -0.872665, 0.000000, 0.436332, 522.289, 512.234, 515.409, 476.355, 487.926, 634.995, 2.992
0.000000, -0.087266, 0.087266, 0.001523, 0.785398, 0.087266, 0.001523, 0.785398, 0.000000, -0.034907, 0.715585, -0.872665, 0.000000, 0.436332, 0.000000, 0.034907, 0.715585, -0.872665, 0.000000, 0.436332, 523.14, 510.338, 515.659, 475.828, 487.483, 634.269, 3.008
0.000000, -0.087266, 0.087266, 0.001523, 0.785398, 0.087266, 0.001523, 0.785398, 0.000000, -0.034907, 0.715585, -0.872665, 0.000000, 0.436332, 0.000000, 0.034907, 0.715585, -0.872665, 0.000000, 0.436332, 523.965, 509.724, 515.841, 470.582, 489.73, 630.984, 3.024
0.000000, -0.087266, 0.087266, 0.001523, 0.785398, 0.087266, 0.001523, 0.785398, 0.000000, -0.034907, 0.715585, -0.872665, 0.000000, 0.436332, 0.000000, 0.034907, 0.715585, -0.872665, 0.000000, 0.436332, 524.649, 509.167, 516.09, 455.245, 494.651, 642.364, 3.04
0.000000, -0.087266, 0.087266, 0.001523, 0.785398, 0.087266, 0.001523, 0.785398, 0.000000, -0.034907, 0.715585, -0.872665, 0.000000, 0.436332, 0.000000, 0.034907, 0.715585, -0.872665, 0.000000, 0.436332, 525.307, 508.851, 516.199, 464.487, 497.108, 626.685, 3.056
0.000000, -0.087266, 0.087266, 0.001523, 0.785398, 0.087266, 0.001523, 0.785398, 0.000000, -0.034907, 0.715585, -0.872665, 0.000000, 0.436332, 0.000000, 0.034907, 0.715585, -0.872665, 0.000000, 0.436332, 526.295, 509.1, 516.382, 473.597, 494.351, 643.918, 3.072
0.000000, -0.087266, 0.087266, 0.001523, 0.785398, 0.087266, 0.001523, 0.785398, 0.000000, -0.034907, 0.715585, -0.872665, 0.000000, 0.436332, 0.000000, 0.034907, 0.715585, -0.872665, 0.000000, 0.436332, 526.649, 508.914, 516.242, 463.263, 505.91, 641.472, 3.088
0.000000, -0.087266, 0.087266, 0.001523, 0.785398, 0.087266, 0.001523, 0.785398, 0.000000, -0.034907, 0.715585, -0.872665, 0.000000, 0.436332, 0.000000, 0.034907, 0.715585, -0.872665, 0.000000, 0.436332, 525.8, 507.801, 515.934, 466.239, 512.497, 646.856, 3.104
0.000000, -0.087266, 0.087266, 0.001523, 0.785398, 0.087266, 0.001523, 0.785398, 0.000000, -0.034907, 0.715585, -0.872665, 0.000000, 0.436332, 0.000000, 0.034907, 0.715585, -0.872665, 0.000000, 0.436332, 525.307, 507.344, 515.445, 462.297, 543.824, 630.728, 3.12
0.000000, -0.087266, 0.087266, 0.001523, 0.785398, 0.087266, 0.001523, 0.785398, 0.000000, -0.034907, 0.715585, -0.872665, 0.000000, 0.436332, 0.000000, 0.034907, 0.715585, -0.872665, 0.000000, 0.436332, 525.625, 506.802, 514.885, 479.438, 542.209, 673.272, 3.136
0.000000, -0.087266, 0.087266, 0.001523, 0.785398, 0.087266, 0.001523, 0.785398, 0.000000, -0.034907, 0.715585, -0.872665, 0.000000, 0.436332, 0.000000, 0.034907, 0.715585, -0.872665, 0.000000, 0.436332, 523.328, 507.395, 514.18, 464.488, 524.156, 624.75, 3.152
0.000000, -0.087266, 0.087266, 0.001523, 0.785398, 0.087266, 0.001523, 0.785398, 0.000000, -0.034907, 0.715585, -0.872665, 0.000000, 0.436332, 0.000000, 0.034907, 0.715585, -0.872665, 0.000000, 0.436332, 521.655, 507.336, 513.66, 480.73, 550.518, 642.137, 3.168
0.000000, -0.087266, 0.087266, 0.001523, 0.785398, 0.087266, 0.001523, 0.785398, 0.000000, -0.034907, 0.715585, -0.872665, 0.000000, 0.436332, 0.000000, 0.034907, 0.715585, -0.872665, 0.000000, 0.436332, 520.314, 507.795, 514.602, 479.757, 551.06, 625.613, 3.184
0.000000, -0.087266, 0.087266, 0.001523, 0.785398, 0.087266, 0.001523, 0.785398, 0.000000, -0.034907, 0.715585, -0.872665, 0.000000, 0.436332, 0.000000, 0.034907, 0.715585, -0.872665, 0.000000, 0.436332, 519.064, 508.159, 514.235, 481.511, 548.226, 627.441, 3.2
0.000000, -0.087266, 0.087266, 0.001523, 0.785398, 0.087266, 0.001523, 0.785398, 0.000000, -0.034907, 0.715585, -0.872665, 0.000000, 0.436332, 0.000000, 0.034907, 0.715585, -0.872665, 0.000000, 0.436332, 518.127, 508.557, 513.932, 483.671, 541.259, 631.74, 3.216
0.000000, -0.087266, 0.087266, 0.001523, 0.785398, 0.087266, 0.001523, 0.785398, 0.000000, -0.034907, 0.715585, -0.872665, 0.000000, 0.436332, 0.000000, 0.034907, 0.715585, -0.872665, 0.000000, 0.436332, 516.993, 508.989, 513.568, 482.644, 546.893, 631.902, 3.232
0.000000, -0.087266, 0.087266, 0.001523, 0.785398, 0.087266, 0.001523, 0.785398, 0.000000, -0.034907, 0.715585, -0.872665, 0.000000, 0.436332, 0.000000, 0.034907, 0.715585, -0.872665, 0.000000, 0.436332, 515.859, 509.406, 513.223, 482.774, 546.722, 631.631, 3.248
0.000000, -0.087266, 0.087266, 0.001523, 0.785398, 0.087266, 0.001523, 0.785398, 0.000000, -0.034907, 0.715585, -0.872665, 0.000000, 0.436332, 0.000000, 0.034907, 0.715585, -0.872665, 0.000000, 0.436332, 516.92, 509.529, 512.852, 482.517, 542.545, 636.697, 3.264
0.000000, -0.087266, 0.087266, 0.001523, 0.785398, 0.087266, 0.001523, 0.785398, 0.000000, -0.034907, 0.715585, -0.872665, 0.000000, 0.436332, 0.000000, 0.034907, 0.715585, -0.872665, 0.000000, 0.436332, 517.338, 509.639, 512.505, 482.552, 542.945, 635.034, 3.28
0.000000, -0.087266, 0.087266, 0.001523, 0.785398, 0.087266, 0.001523, 0.785398, 0.000000, -0.034907, 0.715585, -0.872665, 0.000000, 0.436332, 0.000000, 0.034907, 0.715585, -0.872665, 0.000000, 0.436332, 516.337, 509.729, 512.244, 483.175, 543.293, 630.403, 3.296
0.000000, -0.087266, 0.087266, 0.001523, 0.785398, 0.087266, 0.001523, 0.785398, 0.000000, -0.034907, 0.715585, -0.872665, 0.000000, 0.436332, 0.000000, 0.034907, 0.715585, -0.872665, 0.000000, 0.436332, 515.33, 509.784, 512.004, 483.211, 541.896, 631.346, 3.312
0.000000, -0.087266, 0.087266, 0.001523, 0.785398, 0.087266, 0.001523, 0.785398, 0.000000, -0.034907, 0.715585, -0.872665, 0.000000, 0.436332, 0.000000, 0.034907, 0.715585, -0.872665, 0.000000, 0.436332, 513.028, 509.938, 512.117, 482.371, 523.879, 629.014, 3.328
0.000000, -0.087266, 0.087266, 0.001523, 0.785398, 0.087266, 0.001523, 0.785398, 0.000000, -0.034907, 0.715585, -0.872665, 0.000000, 0.436332, 0.000000, 0.034907, 0.715585, -0.872665, 0.000000, 0.436332, 511.6, 509.951, 513.284, 485.734, 533.904, 627.491, 3.344
0.000000, -0.087266, 0.087266, 0.001523, 0.785398, 0.087266, 0.001523, 0.785398, 0.000000, -0.034907, 0.715585, -0.872665, 0.000000, 0.436332, 0.000000, 0.034907, 0.715585, -0.872665, 0.000000, 0.436332, 510.627, 510.017, 513.027, 487.343, 539.102, 629.36, 3.36
0.000000, -0.087266, 0.087266, 0.001523, 0.785398, 0.087266, 0.001523, 0.785398, 0.000000, -0.034907, 0.715585, -0.872665, 0.000000, 0.436332, 0.000000, 0.034907, 0.715585, -0.872665, 0.000000, 0.436332, 509.648, 510.09, 512.77, 486.843, 538.193, 630.02, 3.376
0.000000, -0.087266, 0.087266, 0.001523, 0.785398, 0.087266, 0.001523, 0.785398, 0.000000, -0.034907, 0.715585, -0.872665, 0.000000, 0.436332, 0.000000, 0.034907, 0.715585, -0.872665, 0.000000, 0.436332, 508.671, 510.175, 512.507, 486.502, 537.194, 630.332, 3.392
0.000000, -0.087266, 0.087266, 0.001523, 0.785398, 0.087266, 0.001523, 0.785398, 0.000000, -0.034907, 0.715585, -0.872665, 0.000000, 0.436332, 0.000000, 0.034907, 0.715585, -0.872665, 0.000000, 0.436332, 507.693, 510.27, 512.245, 486.227, 535.976, 630.557, 3.408
0.000000, -0.087266, 0.087266, 0.001523, 0.785398, 0.087266, 0.001523, 0.785398, 0.000000, -0.034907, 0.715585, -0.872665, 0.000000, 0.436332, 0.000000, 0.034907, 0.715585, -0.872665, 0.000000, 0.436332, 506.716, 510.371, 511.983, 486.025, 534.615, 630.735, 3.424
0.000000, -0.087266, 0.087266, 0.001523, 0.785398, 0.087266, 0.001523, 0.785398, 0.000000, -0.034907, 0.715585, -0.872665, 0.000000, 0.436332, 0.000000, 0.034907, 0.715585, -0.872665, 0.000000, 0.436332, 507.125, 510.615, 511.846, 485.078, 546.995, 637.596, 3.44
0.000000, -0.087266, 0.087266, 0.001523, 0.785398, 0.087266, 0.001523, 0.785398, 0.000000, -0.034907, 0.715585, -0.872665, 0.000000, 0.436332, 0.000000, 0.034907, 0.715585, -0.872665, 0.000000, 0.436332, 506.202, 511.023, 511.514, 481.189, 521.192, 637.812, 3.456
0.000000, -0.087266, 0.087266, 0.001523, 0.785398, 0.087266, 0.001523, 0.785398, 0.000000, -0.034907, 0.715585, -0.872665, 0.000000, 0.436332, 0.000000, 0.034907, 0.715585, -0.872665, 0.000000, 0.436332, 506.431, 511.414, 511.339, 480.934, 535.313, 637.398, 3.472
0.000000, -0.087266, 0.087266, 0.001523, 0.785398, 0.087266, 0.001523, 0.785398, 0.000000, -0.034907, 0.715585, -0.872665, 0.000000, 0.436332, 0.000000, 0.034907, 0.715585, -0.872665, 0.000000, 0.436332, 506.391, 511.782, 511.317, 482.326, 514.335, 656.745, 3.488
0.000000, -0.087266, 0.087266, 0.001523, 0.785398, 0.087266, 0.001523, 0.785398, 0.000000, -0.034907, 0.715585, -0.872665, 0.000000, 0.436332, 0.000000, 0.034907, 0.715585, -0.872665, 0.000000, 0.436332, 506.491, 512.131, 511.256, 487.721, 515.921, 637.564, 3.504
0.000000, -0.087266, 0.087266, 0.001523, 0.785398, 0.087266, 0.001523, 0.785398, 0.000000, -0.034907, 0.715585, -0.872665, 0.000000, 0.436332, 0.000000, 0.034907, 0.715585, -0.872665, 0.000000, 0.436332, 506.597, 512.489, 511.231, 487.093, 515.423, 635.178, 3.52
0.000000, -0.087266, 0.087266, 0.001523, 0.785398, 0.087266, 0.001523, 0.785398, 0.000000, -0.034907, 0.715585, -0.872665, 0.000000, 0.436332, 0.000000, 0.034907, 0.715585, -0.872665, 0.000000, 0.436332, 506.69, 512.811, 511.203, 486.219, 515.118, 634.753, 3.536
0.000000, -0.087266, 0.087266, 0.001523, 0.785398, 0.087266, 0.001523, 0.785398, 0.000000, -0.034907, 0.715585, -0.872665, 0.000000, 0.436332, 0.000000, 0.034907, 0.715585, -0.872665, 0.000000, 0.436332, 506.765, 513.143, 511.162, 485.383, 514.838, 634.499, 3.552
0.000000, -0.087266, 0.087266, 0.001523, 0.785398, 0.087266, 0.001523, 0.785398, 0.000000, -0.034907, 0.715585, -0.872665, 0.000000, 0.436332, 0.000000, 0.034907, 0.715585, -0.872665, 0.000000, 0.436332, 506.807, 513.484, 511.112, 484.429, 514.916, 634.231, 3.568
0.000000, -0.087266, 0.087266, 0.001523, 0.785398, 0.087266, 0.001523, 0.785398, 0.000000, -0.034907, 0.715585, -0.872665, 0.000000, 0.436332, 0.000000, 0.034907, 0.715585, -0.872665, 0.000000, 0.436332, 506.963, 512.706, 510.625, 490.129, 511.878, 638.29, 3.584
0.000000, -0.087266, 0.087266, 0.001523, 0.785398, 0.087266, 0.001523, 0.785398, 0.000000, -0.034907, 0.715585, -0.872665, 0.000000, 0.436332, 0.000000, 0.034907, 0.715585, -0.872665, 0.000000, 0.436332, 507.168, 512.818, 510.504, 510.338, 510.387, 646.181, 3.6
0.000000, -0.087266, 0.087266, 0.001523, 0.785398, 0.087266, 0.001523, 0.785398, 0.000000, -0.034907, 0.715585, -0.872665, 0.000000, 0.436332, 0.000000, 0.034907, 0.715585, -0.872665, 0.000000, 0.436332, 507.373, 513.098, 510.479, 494.668, 509.879, 640.158, 3.616
0.000000, -0.087266, 0.087266, 0.001523, 0.785398, 0.087266, 0.001523, 0.785398, 0.000000, -0.034907, 0.715585, -0.872665, 0.000000, 0.436332, 0.000000, 0.034907, 0.715585, -0.872665, 0.000000, 0.436332, 507.253, 513.587, 510.718, 476.005, 519.213, 646.727, 3.632
0.000000, -0.087266, 0.087266, 0.001523, 0.785398, 0.087266, 0.001523, 0.785398, 0.000000, -0.034907, 0.715585, -0.872665, 0.000000, 0.436332, 0.000000, 0.034907, 0.715585, -0.872665, 0.000000, 0.436332, 507.709, 514.025, 510.91, 480.509, 506.117, 630.456, 3.648
0.000000, -0.087266, 0.087266, 0.001523, 0.785398, 0.087266, 0.001523, 0.785398, 0.000000, -0.034907, 0.715585, -0.872665, 0.000000, 0.436332, 0.000000, 0.034907, 0.715585, -0.872665, 0.000000, 0.436332, 507.674, 514.857, 510.849, 468.28, 504.111, 632.674, 3.664
0.000000, -0.087266, 0.087266, 0.001523, 0.785398, 0.087266, 0.001523, 0.785398, 0.000000, -0.034907, 0.715585, -0.872665, 0.000000, 0.436332, 0.000000, 0.034907, 0.715585, -0.872665, 0.000000, 0.436332, 507.895, 515.311, 510.885, 472.209, 504.953, 632.903, 3.68
0.000000, -0.087266, 0.087266, 0.001523, 0.785398, 0.087266, 0.001523, 0.785398, 0.000000, -0.034907, 0.715585, -0.872665, 0.000000, 0.436332, 0.000000, 0.034907, 0.715585, -0.872665, 0.000000, 0.436332, 508.476, 515.777, 511.013, 474.882, 505.202, 632.616, 3.696
0.000000, -0.087266, 0.087266, 0.001523, 0.785398, 0.087266, 0.001523, 0.785398, 0.000000, -0.034907, 0.715585, -0.872665, 0.000000, 0.436332, 0.000000, 0.034907, 0.715585, -0.872665, 0.000000, 0.436332, 508.967, 516.223, 511.145, 472.467, 497.79, 641.119, 3.712
0.000000, -0.087266, 0.087266, 0.001523, 0.785398, 0.087266, 0.001523, 0.785398, 0.000000, -0.034907, 0.715585, -0.872665, 0.000000, 0.436332, 0.000000, 0.034907, 0.715585, -0.872665, 0.000000, 0.436332, 509.437, 516.652, 511.256, 473.811, 500.739, 632.119, 3.728
0.000000, -0.087266, 0.087266, 0.001523, 0.785398, 0.087266, 0.001523, 0.785398, 0.000000, -0.034907, 0.715585, -0.872665, 0.000000, 0.436332, 0.000000, 0.034907, 0.715585, -0.872665, 0.000000, 0.436332, 509.918, 514.731, 511.284, 492.752, 500.573, 642.669, 3.744
0.000000, -0.087266, 0.087266, 0.001523, 0.785398, 0.087266, 0.001523, 0.785398, 0.000000, -0.034907, 0.715585, -0.872665, 0.000000, 0.436332, 0.000000, 0.034907, 0.715585, -0.872665, 0.000000, 0.436332, 510.216, 514.597, 511.442, 474.513, 497.537, 638.119, 3.76
0.000000, -0.087266, 0.087266, 0.001523, 0.785398, 0.087266, 0.001523, 0.785398, 0.000000, -0.034907, 0.715585, -0.872665, 0.000000, 0.436332, 0.000000, 0.034907, 0.715585, -0.872665, 0.000000, 0.436332, 510.444, 514.525, 511.595, 476.308, 498.2, 632.863, 3.776
0.000000, -0.087266, 0.087266, 0.001523, 0.785398, 0.087266, 0.001523, 0.785398, 0.000000, -0.034907, 0.715585, -0.872665, 0.000000, 0.436332, 0.000000, 0.034907, 0.715585, -0.872665, 0.000000, 0.436332, 510.699, 514.473, 511.736, 476.276, 498.783, 633.653, 3.792
0.000000, -0.087266, 0.087266, 0.001523, 0.785398, 0.087266, 0.001523, 0.785398, 0.000000, -0.034907, 0.715585, -0.872665, 0.000000, 0.436332, 0.000000, 0.034907, 0.715585, -0.872665, 0.000000, 0.436332, 511.033, 513.386, 511.817, 460.748, 498.938, 631.342, 3.808
0.000000, -0.087266, 0.087266, 0.001523, 0.785398, 0.087266, 0.001523, 0.785398, 0.000000, -0.034907, 0.715585, -0.872665, 0.000000, 0.436332, 0.000000, 0.034907, 0.715585, -0.872665, 0.000000, 0.436332, 511.576, 513.065, 511.908, 469.199, 500.836, 632.95, 3.824
0.000000, -0.087266, 0.087266, 0.001523, 0.785398, 0.087266, 0.001523, 0.785398, 0.000000, -0.034907, 0.715585, -0.872665, 0.000000, 0.436332, 0.000000, 0.034907, 0.715585, -0.872665, 0.000000, 0.436332, 511.945, 512.74, 511.999, 469.853, 501.213, 632.759, 3.84
0.000000, -0.087266, 0.087266, 0.001523, 0.785398, 0.087266, 0.001523, 0.785398, 0.000000, -0.033231, 0.711396, -0.867080, 0.002094, 0.434238, 0.000000, 0.038587, 0.709594, -0.866223, 0.006919, 0.433114, 512.539, 512.302, 512.001, 470.406, 505.119, 636.867, 3.856
0.000000, -0.087266, 0.087266, 0.001523, 0.785398, 0.087266, 0.001523, 0.785398, 0.000000, -0.029880, 0.703019, -0.855910, 0.006283, 0.430049, 0.000000, 0.045949, 0.697611, -0.853338, 0.020758, 0.426677, 513.313, 511.769, 511.934, 470.92, 509.227, 640.862, 3.872
0.000000, -0.087266, 0.087266, 0.001523, 0.785398, 0.087266, 0.001523, 0.785398, 0.000000, -0.026529, 0.694641, -0.844740, 0.010472, 0.425860, 0.000000, 0.053311, 0.685628, -0.840454, 0.034597, 0.420240, 513.956, 511.3, 511.828, 471.49, 510.343, 640.274, 3.888
0.000000, -0.087266, 0.087266, 0.001523, 0.785398, 0.087266, 0.001523, 0.785398, 0.000000, -0.023178, 0.686263, -0.833570, 0.014661, 0.421671, 0.000000, 0.060673, 0.673645, -0.827570, 0.048436, 0.413803, 514.455, 510.899, 511.741, 472.301, 511.476, 639.402, 3.904
0.000000, -0.087266, 0.087266, 0.001523, 0.785398, 0.087266, 0.001523, 0.785398, 0.000000, -0.019827, 0.677886, -0.822399, 0.018850, 0.417482, 0.000000, 0.068034, 0.661662, -0.814685, 0.062275, 0.407367, 514.857, 510.525, 511.659, 472.427, 511.946, 638.933, 3.92
0.000000, -0.087266, 0.087266, 0.001523, 0.785398, 0.087266, 0.001523, 0.785398, 0.000000, -0.016476, 0.669508, -0.811229, 0.023038, 0.413294, 0.000000, 0.075396, 0.649679, -0.801801, 0.076113, 0.400930, 515.169, 510.149, 511.605, 472.385, 512.491, 638.025, 3.936
0.000000, -0.087266, 0.087266, 0.001523, 0.785398, 0.087266, 0.001523, 0.785398, 0.000000, -0.013125, 0.661131, -0.800059, 0.027227, 0.409105, 0.000000, 0.082758, 0.637696, -0.788916, 0.089952, 0.394493, 515.292, 509.623, 511.547, 469.931, 514.212, 639.315, 3.952
0.000000, -0.087266, 0.087266, 0.001523, 0.785398, 0.087266, 0.001523, 0.785398, 0.000000, -0.009774, 0.652753, -0.788889, 0.031416, 0.404916, 0.000000, 0.090120, 0.625713, -0.776032, 0.103791, 0.388056, 513.784, 508.099, 511.711, 485.381, 509.537, 644.414, 3.968
0.000000, -0.087266, 0.087266, 0.001523, 0.785398, 0.087266, 0.001523, 0.785398, 0.000000, -0.006423, 0.644376, -0.777719, 0.035605, 0.400727, 0.000000, 0.097481, 0.613730, -0.763147, 0.117630, 0.381620, 513.442, 507.259, 511.542, 471.918, 517.968, 640.143, 3.984
0.000000, -0.087266, 0.087266, 0.001523, 0.785398, 0.087266, 0.001523, 0.785398, 0.000000, -0.003072, 0.635998, -0.766549, 0.039793, 0.396539, 0.000000, 0.104843, 0.601747, -0.750263, 0.131469, 0.375183, 512.947, 506.804, 511.328, 466.208, 527.642, 634.396, 4
0.000000, -0.087266, 0.087266, 0.001523, 0.785398, 0.087266, 0.001523, 0.785398, 0.000000, 0.000279, 0.627620, -0.755379, 0.043982, 0.392350, 0.000000, 0.112205, 0.589764, -0.737379, 0.145308, 0.368746, 512.34, 506.433, 511.149, 467.478, 526.814, 632.581, 4.016
0.000000, -0.087266, 0.087266, 0.001523, 0.785398, 0.087266, 0.001523, 0.785398, 0.000000, 0.003630, 0.619243, -0.744209, 0.048171, 0.388161, 0.000000, 0.119567, 0.577781, -0.724494, 0.159146, 0.362310, 511.55, 506.593, 510.931, 480.211, 532.5, 639.873, 4.032
0.000000, -0.087266, 0.087266, 0.001523, 0.785398, 0.087266, 0.001523, 0.785398, 0.000000, 0.006981, 0.610865, -0.733039, 0.052360, 0.383972, 0.000000, 0.126928, 0.565798, -0.711610, 0.172985, 0.355873, 510.951, 506.421, 510.798, 477.431, 524.168, 630.833, 4.048
0.000000, -0.087266, 0.087266, 0.001523, 0.785398, 0.087266, 0.001523, 0.785398, 0.000000, 0.010332, 0.602488, -0.721868, 0.056549, 0.379783, 0.000000, 0.134290, 0.553815, -0.698725, 0.186824, 0.349436, 510.277, 506.964, 512.604, 472.862, 529.736, 632.547, 4.064
0.000000, -0.087266, 0.087266, 0.001523, 0.785398, 0.087266, 0.001523, 0.785398, 0.000000, 0.013683, 0.594110, -0.710698, 0.060737, 0.375595, 0.000000, 0.141652, 0.541832, -0.685841, 0.200663, 0.342999, 509.691, 506.773, 513.825, 479.06, 525.693, 633.349, 4.08
0.000000, -0.087266, 0.087266, 0.001523, 0.785398, 0.087266, 0.001523, 0.785398, 0.000000, 0.017034, 0.585732, -0.699528, 0.064926, 0.371406, 0.000000, 0.149013, 0.529849, -0.672957, 0.214502, 0.336563, 509.145, 506.895, 514.408, 497.028, 524.66, 632.074, 4.096
0.000000, -0.087266, 0.087266, 0.001523, 0.785398, 0.087266, 0.001523, 0.785398, 0.000000, 0.020385, 0.577355, -0.688358, 0.069115, 0.367217, 0.000000, 0.156375, 0.517866, -0.660072, 0.228340, 0.330126, 508.685, 507.51, 514.99, 485.727, 522.258, 635.769, 4.112
0.000000, -0.087266, 0.087266, 0.001523, 0.785398, 0.087266, 0.001523, 0.785398, 0.000000, 0.023736, 0.568977, -0.677188, 0.073304, 0.363028, 0.000000, 0.163737, 0.505883, -0.647188, 0.242179, 0.323689, 508.466, 508.129, 513.032, 490.009, 514.075, 636.67, 4.128
0.000000, -0.087266, 0.087266, 0.001523, 0.785398, 0.087266, 0.001523, 0.785398, 0.000000, 0.027088, 0.560600, -0.666018, 0.077493, 0.358839, 0.000000, 0.171099, 0.493900, -0.634303, 0.256018, 0.317252, 508.536, 508.405, 511.832, 493.773, 506.842, 641.49, 4.144
0.000000, -0.087266, 0.087266, 0.001523, 0.785398, 0.087266, 0.001523, 0.785398, 0.000000, 0.030439, 0.552222, -0.654848, 0.081681, 0.354651, 0.000000, 0.178460, 0.481917, -0.621419, 0.269857, 0.310816, 508.599, 508.789, 511.161, 494.694, 507.825, 635.511, 4.16
0.000000, -0.087266, 0.087266, 0.001523, 0.785398, 0.087266, 0.001523, 0.785398, 0.000000, 0.033790, 0.543845, -0.643678, 0.085870, 0.350462, 0.000000, 0.185822, 0.469934, -0.608534, 0.283696, 0.304379, 508.783, 507.953, 511.081, 488.603, 505.431, 631.01, 4.176
0.000000, -0.087266, 0.087266, 0.001523, 0.785398, 0.087266, 0.001523, 0.785398, 0.000000, 0.037141, 0.535467, -0.632508, 0.090059, 0.346273, 0.000000, 0.193184, 0.457951, -0.595650, 0.297535, 0.297942, 508.914, 507.339, 510.81, 487.178, 505.883, 633.752, 4.192
0.000000, -0.087266, 0.087266, 0.001523, 0.785398, 0.087266, 0.001523, 0.785398, 0.000000, 0.040492, 0.527089, -0.621337, 0.094248, 0.342084, 0.000000, 0.200546, 0.445968, -0.582766, 0.311373, 0.291505, 508.994, 506.843, 510.698, 485.685, 506.431, 634.441, 4.208
0.000000, -0.087266, 0.087266, 0.001523, 0.785398, 0.087266, 0.001523, 0.785398, 0.000000, 0.043843, 0.518712, -0.610167, 0.098436, 0.337896, 0.000000, 0.207907, 0.433985, -0.569881, 0.325212, 0.285069, 508.975, 506.52, 510.773, 485.039, 508.229, 635.199, 4.224
0.000000, -0.087266, 0.087266, 0.001523, 0.785398, 0.087266, 0.001523, 0.785398, 0.000000, 0.047194, 0.510334, -0.598997, 0.102625, 0.333707, 0.000000, 0.215269, 0.422002, -0.556997, 0.339051, 0.278632, 509.122, 506.525, 510.853, 483.512, 503.48, 638.042, 4.24
0.000000, -0.087266, 0.087266, 0.001523, 0.785398, 0.087266, 0.001523, 0.785398, 0.000000, 0.050545, 0.501957, -0.587827, 0.106814, 0.329518, 0.000000, 0.222631, 0.410019, -0.544112, 0.352890, 0.272195, 509.337, 506.697, 510.923, 484.567, 501.618, 637.765, 4.256
0.000000, -0.087266, 0.087266, 0.001523, 0.785398, 0.087266, 0.001523, 0.785398, 0.000000, 0.053896, 0.493579, -0.576657, 0.111003, 0.325329, 0.000000, 0.229993, 0.398036, -0.531228, 0.366729, 0.265758, 509.585, 506.92, 511.002, 486.052, 501.07, 637.008, 4.272
0.000000, -0.087266, 0.087266, 0.001523, 0.785398, 0.087266, 0.001523, 0.785398, 0.000000, 0.057247, 0.485201, -0.565487, 0.115192, 0.321140, 0.000000, 0.237354, 0.386053, -0.518344, 0.380567, 0.259322, 509.853, 507.13, 511.077, 488.023, 500.483, 637.51, 4.288
0.000000, -0.087266, 0.087266, 0.001523, 0.785398, 0.087266, 0.001523, 0.785398, 0.000000, 0.060598, 0.476824, -0.554317, 0.119380, 0.316952, 0.000000, 0.244716, 0.374070, -0.505459, 0.394406, 0.252885, 510.115, 507.339, 511.145, 489.262, 500.464, 637.885, 4.304
0.000000, -0.087266, 0.087266, 0.001523, 0.785398, 0.087266, 0.001523, 0.785398, 0.000000, 0.063949, 0.468446, -0.543147, 0.123569, 0.312763, 0.000000, 0.252078, 0.362087, -0.492575, 0.408245, 0.246448, 510.363, 507.544, 511.208, 490.348, 500.695, 638.068, 4.32
0.000000, -0.087266, 0.087266, 0.001523, 0.785398, 0.087266, 0.001523, 0.785398, 0.000000, 0.067300, 0.460069, -0.531977, 0.127758, 0.308574, 0.000000, 0.259439, 0.350104, -0.479690, 0.422084, 0.240012, 510.971, 507.716, 511.337, 490.948, 495.676, 639.264, 4.336
0.000000, -0.087266, 0.087266, 0.001523, 0.785398, 0.087266, 0.001523, 0.785398, 0.000000, 0.070651, 0.451691, -0.520806, 0.131947, 0.304385, 0.000000, 0.266801, 0.338121, -0.466806, 0.435923, 0.233575, 511.188, 507.857, 511.397, 491.932, 500.781, 637.985, 4.352
0.000000, -0.087266, 0.087266, 0.001523, 0.785398, 0.087266, 0.001523, 0.785398, 0.000000, 0.074002, 0.443314, -0.509636, 0.136135, 0.300197, 0.000000, 0.274163, 0.326138, -0.453921, 0.449762, 0.227138, 511.387, 508.001, 511.451, 492.617, 501.376, 637.951, 4.368
0.000000, -0.087266, 0.087266, 0.001523, 0.785398, 0.087266, 0.001523, 0.785398, 0.000000, 0.077353, 0.434936, -0.498466, 0.140324, 0.296008, 0.000000, 0.281525, 0.314155, -0.441037, 0.463600, 0.220701, 511.561, 508.149, 511.498, 493.242, 501.883, 638.002, 4.384
0.000000, -0.087266, 0.087266, 0.001523, 0.785398, 0.087266, 0.001523, 0.785398, 0.000000, 0.080704, 0.426558, -0.487296, 0.144513, 0.291819, 0.000000, 0.288886, 0.302172, -0.428153, 0.477439, 0.214265, 511.71, 508.304, 511.539, 493.826, 502.394, 638.07, 4.4
0.000000, -0.087266, 0.087266, 0.001523, 0.785398, 0.087266, 0.001523, 0.785398, 0.000000, 0.084055, 0.418181, -0.476126, 0.148702, 0.287630, 0.000000, 0.296248, 0.290189, -0.415268, 0.491278, 0.207828, 511.842, 508.468, 511.575, 494.378, 502.813, 638.164, 4.416
0.000000, -0.087266, 0.087266, 0.001523, 0.785398, 0.087266, 0.001523, 0.785398, 0.000000, 0.087406, 0.409803, -0.464956, 0.152891, 0.283441, 0.000000, 0.303610, 0.278206, -0.402384, 0.505117, 0.201391, 511.963, 508.646, 511.605, 494.908, 503.138, 638.282, 4.432
0.000000, -0.087266, 0.087266, 0.001523, 0.785398, 0.087266, 0.001523, 0.785398, 0.000000, 0.090757, 0.401426, -0.453786, 0.157079, 0.279253, 0.000000, 0.310972, 0.266223, -0.389499, 0.518956, 0.194954, 512.148, 509.22, 511.579, 497.185, 501.637, 638.52, 4.448
0.000000, -0.087266, 0.087266, 0.001523, 0.785398, 0.087266, 0.001523, 0.785398, 0.000000, 0.094108, 0.393048, -0.442616, 0.161268, 0.275064, 0.000000, 0.318333, 0.254240, -0.376615, 0.532794, 0.188518, 512.264, 509.381, 511.618, 496.62, 503.765, 639.382, 4.464
0.000000, -0.087266, 0.087266, 0.001523, 0.785398, 0.087266, 0.001523, 0.785398, 0.000000, 0.097459, 0.384670, -0.431446, 0.165457, 0.270875, 0.000000, 0.325695, 0.242257, -0.363731, 0.546633, 0.182081, 512.353, 509.576, 511.641, 496.791, 504.127, 638.689, 4.48
0.000000, -0.087266, 0.087266, 0.001523, 0.785398, 0.087266, 0.001523, 0.785398, 0.000000, 0.100810, 0.376293, -0.420275, 0.169646, 0.266686, 0.000000, 0.333057, 0.230274, -0.350846, 0.560472, 0.175644, 512.433, 509.817, 511.652, 497.176, 504.366, 638.618, 4.496
0.000000, -0.087266, 0.087266, 0.001523, 0.785398, 0.087266, 0.001523, 0.785398, 0.000000, 0.104161, 0.367915, -0.409105, 0.173835, 0.262497, 0.000000, 0.340419, 0.218291, -0.337962, 0.574311, 0.169207, 512.578, 510.443, 511.596, 499.151, 502.86, 638.806, 4.512
0.000000, -0.087266, 0.087266, 0.001523, 0.785398, 0.087266, 0.001523, 0.785398, 0.000000, 0.107512, 0.359538, -0.397935, 0.178023, 0.258309, 0.000000, 0.347780, 0.206308, -0.325077, 0.588150, 0.162771, 512.659, 510.73, 511.602, 498.53, 504.754, 639.752, 4.528
0.000000, -0.087266, 0.087266, 0.001523, 0.785398, 0.087266, 0.001523, 0.785398, 0.000000, 0.110863, 0.351160, -0.386765, 0.182212, 0.254120, 0.000000, 0.355142, 0.194325, -0.312193, 0.601988, 0.156334, 512.721, 511.084, 511.586, 498.79, 504.955, 639.058, 4.544
0.000000, -0.087266, 0.087266, 0.001523, 0.785398, 0.087266, 0.001523, 0.785398, 0.000000, 0.114214, 0.342783, -0.375595, 0.186401, 0.249931, 0.000000, 0.362504, 0.182342, -0.299308, 0.615827, 0.149897, 512.836, 511.757, 511.508, 500.355, 503.729, 639.015, 4.56
0.000000, -0.087266, 0.087266, 0.001523, 0.785398, 0.087266, 0.001523, 0.785398, 0.000000, 0.117565, 0.334405, -0.364425, 0.190590, 0.245742, 0.000000, 0.369866, 0.170359, -0.286424, 0.629666, 0.143461, 512.952, 512.427, 511.434, 501.035, 503.966, 639.699, 4.576
0.000000, -0.087266, 0.087266, 0.001523, 0.785398, 0.087266, 0.001523, 0.785398, 0.000000, 0.120916, 0.326027, -0.353255, 0.194778, 0.241554, 0.000000, 0.377227, 0.158376, -0.273540, 0.643505, 0.137024, 513.009, 512.895, 511.396, 500.593, 505.405, 639.683, 4.592
0.000000, -0.087266, 0.087266, 0.001523, 0.785398, 0.087266, 0.001523, 0.785398, 0.000000, 0.124267, 0.317650, -0.342085, 0.198967, 0.237365, 0.000000, 0.384589, 0.146393, -0.260655, 0.657344, 0.130587, 513.095, 513.606, 511.304, 501.592, 504.621, 638.963, 4.608
0.000000, -0.087266, 0.087266, 0.001523, 0.785398, 0.087266, 0.001523, 0.785398, 0.000000, 0.127619, 0.309272, -0.330915, 0.203156, 0.233176, 0.000000, 0.391951, 0.134410, -0.247771, 0.671183, 0.124150, 513.179, 514.33, 511.21, 502.012, 504.881, 639.228, 4.624
0.000000, -0.087266, 0.087266, 0.001523, 0.785398, 0.087266, 0.001523, 0.785398, 0.000000, 0.130970, 0.300895, -0.319744, 0.207345, 0.228987, 0.000000, 0.399312, 0.122427, -0.234886, 0.685021, 0.117714, 513.253, 515.073, 511.11, 502.259, 505.181, 639.118, 4.64
0.000000, -0.087266, 0.087266, 0.001523, 0.785398, 0.087266, 0.001523, 0.785398, 0.000000, 0.134321, 0.292517, -0.308574, 0.211534, 0.224798, 0.000000, 0.406674, 0.110444, -0.222002, 0.698860, 0.111277, 513.316, 515.773, 511.017, 502.157, 505.505, 638.728, 4.656
0.000000, -0.087266, 0.087266, 0.001523, 0.785398, 0.087266, 0.001523, 0.785398, 0.000000, 0.137672, 0.284139, -0.297404, 0.215722, 0.220610, 0.000000, 0.414036, 0.098461, -0.209118, 0.712699, 0.104840, 512.874, 515.754, 511.018, 497.426, 512.786, 634.777, 4.672
0.000000, -0.087266, 0.087266, 0.001523, 0.785398, 0.087266, 0.001523, 0.785398, 0.000000, 0.141023, 0.275762, -0.286234, 0.219911, 0.216421, 0.000000, 0.421398, 0.086478, -0.196233, 0.726538, 0.098403, 512.816, 515.746, 511.056, 497.01, 508.239, 635.554, 4.688
0.000000, -0.087266, 0.087266, 0.001523, 0.785398, 0.087266, 0.001523, 0.785398, 0.000000, 0.144374, 0.267384, -0.275064, 0.224100, 0.212232, 0.000000, 0.428759, 0.074495, -0.183349, 0.740377, 0.091967, 512.732, 515.731, 511.061, 497.051, 508.648, 635.933, 4.704
0.000000, -0.087266, 0.087266, 0.001523, 0.785398, 0.087266, 0.001523, 0.785398, 0.000000, 0.147725, 0.259007, -0.263894, 0.228289, 0.208043, 0.000000, 0.436121, 0.062512, -0.170464, 0.754215, 0.085530, 512.672, 515.863, 511.018, 496.659, 508.242, 635.656, 4.72
0.000000, -0.087266, 0.087266, 0.001523, 0.785398, 0.087266, 0.001523, 0.785398, 0.000000, 0.151076, 0.250629, -0.252724, 0.232478, 0.203854, 0.000000, 0.443483, 0.050529, -0.157580, 0.768054, 0.079093, 512.596, 515.986, 510.96, 496.669, 508.651, 636.35, 4.736
0.000000, -0.087266, 0.087266, 0.001523, 0.785398, 0.087266, 0.001523, 0.785398, 0.000000, 0.154427, 0.242252, -0.241554, 0.236666, 0.199666, 0.000000, 0.450845, 0.038546, -0.144695, 0.781893, 0.072656, 512.51, 516.1, 510.892, 496.746, 509.018, 636.597, 4.752
0.000000, -0.087266, 0.087266, 0.001523, 0.785398, 0.087266, 0.001523, 0.785398, 0.000000, 0.157778, 0.233874, -0.230384, 0.240855, 0.195477, 0.000000, 0.458206, 0.026563, -0.131811, 0.795732, 0.066220, 512.412, 516.206, 510.811, 496.87, 509.314, 636.707, 4.768
0.000000, -0.087266, 0.087266, 0.001523, 0.785398, 0.087266, 0.001523, 0.785398, 0.000000, 0.161129, 0.225496, -0.219213, 0.245044, 0.191288, 0.000000, 0.465568, 0.014580, -0.118927, 0.809571, 0.059783, 512.304, 516.305, 510.731, 497.011, 509.574, 636.739, 4.784
0.000000, -0.087266, 0.087266, 0.001523, 0.785398, 0.087266, 0.001523, 0.785398, 0.000000, 0.164480, 0.217119, -0.208043, 0.249233, 0.187099, 0.000000, 0.472930, 0.002597, -0.106042, 0.823410, 0.053346, 512.186, 516.397, 510.644, 497.206, 509.781, 636.723, 4.8
0.000000, -0.087266, 0.087266, 0.001523, 0.785398, 0.087266, 0.001523, 0.785398, 0.000000, 0.167831, 0.208741, -0.196873, 0.253421, 0.182911, 0.000000, 0.480292, -0.009386, -0.093158, 0.837248, 0.046909, 512.036, 516.524, 510.836, 477.876, 510.557, 639.045, 4.816
0.000000, -0.087266, 0.087266, 0.001523, 0.785398, 0.087266, 0.001523, 0.785398, 0.000000, 0.171182, 0.200364, -0.185703, 0.257610, 0.178722, 0.000000, 0.487653, -0.021369, -0.080273, 0.851087, 0.040473, 511.859, 516.619, 510.918, 480.376, 510.147, 633.998, 4.832
0.000000, -0.087266, 0.087266, 0.001523, 0.785398, 0.087266, 0.001523, 0.785398, 0.000000, 0.174533, 0.191986, -0.174533, 0.261799, 0.174533, 0.000000, 0.495015, -0.033352, -0.067389, 0.864926, 0.034036, 511.692, 516.692, 510.917, 481.528, 510.282, 633.79, 4.848
0.000000, -0.087266, 0.087266, 0.001523, 0.785398, 0.087266, 0.001523, 0.785398, 0.000000, 0.174533, 0.191986, -0.174533, 0.261799, 0.174533, 0.000000, 0.495024, -0.040597, -0.082423, 0.864948, 0.041825, 511.302, 516.589, 510.965, 483.456, 505.668, 634.33, 4.864
0.000000, -0.087266, 0.087266, 0.001523, 0.785398, 0.087266, 0.001523, 0.785398, 0.000000, 0.174533, 0.191986, -0.174533, 0.261799, 0.174533, 0.000000, 0.495032, -0.046679, -0.095419, 0.864969, 0.048739, 510.937, 516.54, 510.943, 483.582, 506.384, 634.913, 4.88
0.000000, -0.087266, 0.087266, 0.001523, 0.785398, 0.087266, 0.001523, 0.785398, 0.000000, 0.174533, 0.191986, -0.174533, 0.261799, 0.174533, 0.000000, 0.495040, -0.051267, -0.105795, 0.864989, 0.054527, 510.598, 516.552, 510.874, 483.613, 507.11, 635.271, 4.896
0.000000, -0.087266, 0.087266, 0.001523, 0.785398, 0.087266, 0.001523, 0.785398, 0.000000, 0.174533, 0.191986, -0.174533, 0.261799, 0.174533, 0.000000, 0.495047, -0.054527, -0.114011, 0.865006, 0.059483, 510.318, 516.593, 510.702, 483.002, 505.999, 639.788, 4.912
0.000000, -0.087266, 0.087266, 0.001523, 0.785398, 0.087266, 0.001523, 0.785398, 0.000000, 0.174533, 0.191986, -0.174533, 0.261799, 0.174533, 0.000000, 0.495053, -0.057291, -0.121451, 0.865023, 0.064159, 510.069, 516.645, 510.557, 484.522, 506.61, 635.009, 4.928
0.000000, -0.087266, 0.087266, 0.001523, 0.785398, 0.087266, 0.001523, 0.785398, 0.000000, 0.174533, 0.191986, -0.174533, 0.261799, 0.174533, 0.000000, 0.495059, -0.059381, -0.127862, 0.865037, 0.068481, 509.754, 516.746, 510.648, 469.373, 506.449, 629.82, 4.944
0.000000, -0.087266, 0.087266, 0.001523, 0.785398, 0.087266, 0.001523, 0.785398, 0.000000, 0.174533, 0.191986, -0.174533, 0.261799, 0.174533, 0.000000, 0.495064, -0.060994, -0.133601, 0.865052, 0.072607, 509.484, 516.834, 510.671, 469.423, 506.691, 633.436, 4.96
0.000000, -0.087266, 0.087266, 0.001523, 0.785398, 0.087266, 0.001523, 0.785398, 0.000000, 0.174533, 0.191986, -0.174533, 0.261799, 0.174533, 0.000000, 0.495070, -0.062380, -0.139031, 0.865067, 0.076650, 509.211, 514.675, 510.948, 487.992, 507.538, 638.217, 4.976
0.000000, -0.087266, 0.087266, 0.001523, 0.785398, 0.087266, 0.001523, 0.785398, 0.000000, 0.174533, 0.191986, -0.174533, 0.261799, 0.174533, 0.000000, 0.495076, -0.063466, -0.144091, 0.865081, 0.080623, 508.939, 514.213, 511.005, 473.546, 507.384, 634.465, 4.992
0.000000, -0.087266, 0.087266, 0.001523, 0.785398, 0.087266, 0.001523, 0.785398, 0.000000, 0.174533, 0.191986, -0.174533, 0.261799, 0.174533, 0.000000, 0.495082, -0.064466, -0.149096, 0.865095, 0.084630, 508.666, 513.823, 511.017, 473.228, 507.358, 634.33, 5.008
0.000000, -0.087266, 0.087266, 0.001523, 0.785398, 0.087266, 0.001523, 0.785398, 0.000000, 0.174533, 0.191986, -0.174533, 0.261799, 0.174533, 0.000000, 0.495087, -0.065416, -0.154085, 0.865110, 0.088668, 508.39, 513.437, 511.01, 473.294, 507.352, 634.248, 5.024
0.000000, -0.087266, 0.087266, 0.001523, 0.785398, 0.087266, 0.001523, 0.785398, 0.000000, 0.174533, 0.191986, -0.174533, 0.261799, 0.174533, 0.000000, 0.495094, -0.066423, -0.159294, 0.865127, 0.092871, 509.212, 513.091, 511.202, 473.469, 491.085, 637.644, 5.04
0.000000, -0.087266, 0.087266, 0.001523, 0.785398, 0.087266, 0.001523, 0.785398, 0.000000, 0.174533, 0.191986, -0.174533, 0.261799, 0.174533, 0.000000, 0.495101, -0.067550, -0.164766, 0.865146, 0.097215, 509.159, 512.732, 511.179, 473.337, 502.513, 634.891, 5.056
0.000000, -0.087266, 0.087266, 0.001523, 0.785398, 0.087266, 0.001523, 0.785398, 0.000000, 0.174533, 0.191986, -0.174533, 0.261799, 0.174533, 0.000000, 0.495109, -0.068798, -0.170500, 0.865165, 0.101701, 509.125, 512.358, 511.179, 473.511, 502.662, 634.745, 5.072
0.000000, -0.087266, 0.087266, 0.001523, 0.785398, 0.087266, 0.001523, 0.785398, 0.000000, 0.174533, 0.191986, -0.174533, 0.261799, 0.174533, 0.000000, 0.495117, -0.070420, -0.176959, 0.865188, 0.106537, 509.102, 511.978, 511.194, 473.641, 502.289, 634.805, 5.088
0.000000, -0.087266, 0.087266, 0.001523, 0.785398, 0.087266, 0.001523, 0.785398, 0.000000, 0.174533, 0.191986, -0.174533, 0.261799, 0.174533, 0.000000, 0.495127, -0.072268, -0.183835, 0.865214, 0.111565, 509.085, 511.591, 511.217, 473.752, 501.945, 634.923, 5.104
0.000000, -0.087266, 0.087266, 0.001523, 0.785398, 0.087266, 0.001523, 0.785398, 0.000000, 0.174533, 0.191986, -0.174533, 0.261799, 0.174533, 0.000000, 0.495138, -0.074451, -0.191325, 0.865242, 0.116873, 509.072, 511.199, 511.255, 473.875, 501.594, 635.04, 5.12
0.000000, -0.087266, 0.087266, 0.001523, 0.785398, 0.087266, 0.001523, 0.785398, 0.000000, 0.174533, 0.191986, -0.174533, 0.261799, 0.174533, 0.000000, 0.495151, -0.077157, -0.199745, 0.865275, 0.122588, 509.065, 510.799, 511.306, 474.009, 501.219, 635.145, 5.136
0.000000, -0.087266, 0.087266, 0.001523, 0.785398, 0.087266, 0.001523, 0.785398, 0.000000, 0.174533, 0.191986, -0.174533, 0.261799, 0.174533, 0.000000, 0.495166, -0.080165, -0.208695, 0.865312, 0.128530, 509.118, 510.407, 511.454, 474.437, 499.268, 637.786, 5.152
0.000000, -0.087266, 0.087266, 0.001523, 0.785398, 0.087266, 0.001523, 0.785398, 0.000000, 0.174533, 0.191986, -0.174533, 0.261799, 0.174533, 0.000000, 0.495182, -0.083719, -0.218591, 0.865354, 0.134872, 509.213, 510.16, 511.535, 477.498, 498.207, 636.827, 5.168
0.000000, -0.087266, 0.087266, 0.001523, 0.785398, 0.087266, 0.001523, 0.785398, 0.000000, 0.174533, 0.191986, -0.174533, 0.261799, 0.174533, 0.000000, 0.495201, -0.087812, -0.229404, 0.865402, 0.141591, 509.323, 510.041, 511.521, 481.337, 497.872, 635.61, 5.184
0.000000, -0.087266, 0.087266, 0.001523, 0.785398, 0.087266, 0.001523, 0.785398, 0.000000, 0.174533, 0.191986, -0.174533, 0.261799, 0.174533, 0.000000, 0.495221, -0.092253, -0.240805, 0.865455, 0.148551, 509.446, 509.922, 511.528, 483.039, 497.312, 636.1, 5.2
0.000000, -0.087266, 0.087266, 0.001523, 0.785398, 0.087266, 0.001523, 0.785398, 0.000000, 0.174533, 0.191986, -0.174533, 0.261799, 0.174533, 0.000000, 0.495245, -0.097415, -0.253403, 0.865517, 0.155988, 509.577, 509.787, 511.562, 484.401, 496.865, 636.282, 5.216
0.000000, -0.087266, 0.087266, 0.001523, 0.785398, 0.087266, 0.001523, 0.785398, 0.000000, 0.174533, 0.191986, -0.174533, 0.261799, 0.174533, 0.000000, 0.495272, -0.103049, -0.266776, 0.865585, 0.163726, 509.717, 509.648, 511.619, 485.541, 496.419, 636.566, 5.232
0.000000, -0.087266, 0.087266, 0.001523, 0.785398, 0.087266, 0.001523, 0.785398, 0.000000, 0.174533, 0.191986, -0.174533, 0.261799, 0.174533, 0.000000, 0.495301, -0.109052, -0.280751, 0.865659, 0.171698, 509.864, 509.505, 511.687, 486.478, 496.006, 636.77, 5.248
0.000000, -0.087266, 0.087266, 0.001523, 0.785398, 0.087266, 0.001523, 0.785398, 0.000000, 0.174533, 0.191986, -0.174533, 0.261799, 0.174533, 0.000000, 0.495335, -0.115904, -0.296088, 0.865746, 0.180183, 510.019, 509.342, 511.775, 487.269, 495.625, 636.946, 5.264
0.000000, -0.087266, 0.087266, 0.001523, 0.785398, 0.087266, 0.001523, 0.785398, 0.000000, 0.174533, 0.191986, -0.174533, 0.261799, 0.174533, 0.000000, 0.495371, -0.123127, -0.312010, 0.865840, 0.188883, 510.18, 509.191, 511.849, 485.707, 495.269, 636.648, 5.28
0.000000, -0.087266, 0.087266, 0.001523, 0.785398, 0.087266, 0.001523, 0.785398, 0.000000, 0.174533, 0.191986, -0.174533, 0.261799, 0.174533, 0.000000, 0.495411, -0.130825, -0.328684, 0.865942, 0.197858, 510.345, 509.021, 511.944, 488.509, 495.024, 637.274, 5.296
0.000000, -0.087266, 0.087266, 0.001523, 0.785398, 0.087266, 0.001523, 0.785398, 0.000000, 0.174533, 0.191986, -0.174533, 0.261799, 0.174533, 0.000000, 0.495457, -0.139255, -0.346496, 0.866060, 0.207241, 510.512, 508.837, 512.057, 488.731, 494.794, 637.294, 5.312
0.000000, -0.087266, 0.087266, 0.001523, 0.785398, 0.087266, 0.001523, 0.785398, 0.000000, 0.174533, 0.191986, -0.174533, 0.261799, 0.174533, 0.000000, 0.495510, -0.142246, -0.364171, 0.866197, 0.221924, 510.674, 508.786, 512.134, 488.123, 494.776, 637.123, 5.328
0.000000, -0.087266, 0.087266, 0.001523, 0.785398, 0.087266, 0.001523, 0.785398, 0.000000, 0.174533, 0.191986, -0.174533, 0.261799, 0.174533, 0.000000, 0.495574, -0.115803, -0.329441, 0.866360, 0.246504, 510.81, 509.119, 512.14, 487.027, 494.817, 636.972, 5.344
0.000000, -0.087266, 0.087266, 0.001523, 0.785398, 0.087266, 0.001523, 0.785398, 0.000000, 0.174533, 0.191986, -0.174533, 0.261799, 0.174533, 0.000000, 0.495551, 0.132348, 0.372949, 0.866302, 0.240601, 510.939, 509.367, 512.136, 487.115, 496.132, 635.925, 5.36
0.000000, -0.087266, 0.087266, 0.001523, 0.785398, 0.087266, 0.001523, 0.785398, 0.000000, 0.174533, 0.191986, -0.174533, 0.261799, 0.174533, 0.000000, 0.495391, 0.128871, 0.320568, 0.865890, 0.191697, 510.858, 512.484, 510.569, 470.216, 498.52, 632.261, 5.376
0.000000, -0.087266, 0.087266, 0.001523, 0.785398, 0.087266, 0.001523, 0.785398, 0.000000, 0.174533, 0.191986, -0.174533, 0.261799, 0.174533, 0.000000, 0.495289, 0.142302, 0.279731, 0.865630, 0.137428, 510.879, 515.325, 509.168, 466.445, 495.88, 628.057, 5.392
0.000000, -0.087266, 0.087266, 0.001523, 0.785398, 0.087266, 0.001523, 0.785398, 0.000000, 0.174533, 0.191986, -0.174533, 0.261799, 0.174533, 0.000000, 0.495236, 0.162763, 0.240359, 0.865494, 0.077595, 511.176, 516.116, 507.747, 488.31, 493.711, 649.425, 5.408
0.000000, -0.087266, 0.087266, 0.001523, 0.785398, 0.087266, 0.001523, 0.785398, 0.000000, 0.174533, 0.191986, -0.174533, 0.261799, 0.174533, 0.000000, 0.495233, 0.180437, 0.191136, 0.865486, 0.018645, 511.374, 513.333, 507.435, 520.286, 491.426, 633.717, 5.424
0.000000, -0.087266, 0.087266, 0.001523, 0.785398, 0.087266, 0.001523, 0.785398, 0.000000, 0.174533, 0.191986, -0.174533, 0.261799, 0.174533, 0.000000, 0.495268, 0.349810, 0.106205, 0.865586, 0.061023, 511.626, 511.752, 506.509, 505.188, 491.855, 639.372, 5.44
0.000000, -0.087266, 0.087266, 0.001523, 0.785398, 0.087266, 0.001523, 0.785398, 0.000000, 0.164061, 0.218166, -0.209440, 0.248709, 0.187623, 0.000000, 0.472278, 0.981429, -0.058298, 0.822426, 0.114873, 511.053, 512.472, 508.75, 490.043, 482.916, 635.553, 5.456
0.000000, -0.087266, 0.087266, 0.001523, 0.785398, 0.087266, 0.001523, 0.785398, 0.000000, 0.143117, 0.270526, -0.279253, 0.222529, 0.213803, 0.000000, 0.426239, 0.953446, -0.144021, 0.735855, 0.148711, 510.098, 512.895, 510.703, 494.58, 477.878, 630.796, 5.472
0.000000, -0.087266, 0.087266, 0.001523, 0.785398, 0.087266, 0.001523, 0.785398, 0.000000, 0.122173, 0.322886, -0.349066, 0.196349, 0.239983, 0.000000, 0.380200, 0.925462, -0.229744, 0.649284, 0.182549, 509.292, 513.661, 512.483, 477.62, 476.571, 639.071, 5.488
0.000000, -0.087266, 0.087266, 0.001523, 0.785398, 0.087266, 0.001523, 0.785398, 0.000000, 0.101229, 0.375246, -0.418879, 0.170169, 0.266163, 0.000000, 0.334161, 0.897478, -0.315467, 0.562713, 0.216386, 508.459, 514.309, 513.365, 465.431, 472.977, 625.748, 5.504
0.000000, -0.087266, 0.087266, 0.001523, 0.785398, 0.087266, 0.001523, 0.785398, 0.000000, 0.080285, 0.427606, -0.488692, 0.143989, 0.292343, 0.000000, 0.288122, 0.869495, -0.401190, 0.476142, 0.250224, 507.555, 514.75, 514.111, 477.582, 473.005, 628.441, 5.52
0.000000, -0.087266, 0.087266, 0.001523, 0.785398, 0.087266, 0.001523, 0.785398, 0.000000, 0.059341, 0.479965, -0.558506, 0.117810, 0.318522, 0.000000, 0.242083, 0.841511, -0.486912, 0.389570, 0.284062, 506.482, 516.612, 515.135, 460.365, 471.913, 617.199, 5.536
0.000000, -0.087266, 0.087266, 0.001523, 0.785398, 0.087266, 0.001523, 0.785398, 0.000000, 0.038397, 0.532325, -0.628319, 0.091630, 0.344702, 0.000000, 0.196044, 0.813528, -0.572635, 0.302999, 0.317900, 506.295, 517.108, 516.055, 474.082, 473.971, 614.715, 5.552
0.000000, -0.087266, 0.087266, 0.001523, 0.785398, 0.087266, 0.001523, 0.785398, 0.000000, 0.017453, 0.584685, -0.698132, 0.065450, 0.370882, 0.000000, 0.150004, 0.785544, -0.658358, 0.216428, 0.351738, 505.413, 514.943, 519.413, 483.639, 483.225, 617.068, 5.568
0.000000, -0.087266, 0.087266, 0.001523, 0.785398, 0.087266, 0.001523, 0.785398, 0.000000, -0.003491, 0.637045, -0.767945, 0.039270, 0.397062, 0.000000, 0.103965, 0.757560, -0.744081, 0.129857, 0.385575, 504.424, 513.8, 522.505, 499.809, 482.127, 632.264, 5.584
0.000000, -0.087266, 0.087266, 0.001523, 0.785398, 0.087266, 0.001523, 0.785398, 0.000000, -0.024435, 0.689405, -0.837758, 0.013090, 0.423242, 0.000000, 0.057926, 0.729577, -0.829804, 0.043286, 0.419413, 503.44, 513.001, 522.401, 482.928, 474.678, 618.879, 5.6
0.000000, -0.087266, 0.087266, 0.001523, 0.785398, 0.087266, 0.001523, 0.785398, 0.000000, -0.034907, 0.715585, -0.872665, 0.000000, 0.436332, 0.000000, 0.034907, 0.715585, -0.872665, 0.000000, 0.436332, 503.989, 512.423, 522.067, 483.683, 484.504, 624.827, 5.616
0.000000, -0.087266, 0.087266, 0.001523, 0.785398, 0.087266, 0.001523, 0.785398, 0.000000, -0.034907, 0.715585, -0.872665, 0.000000, 0.436332, 0.000000, 0.034907, 0.715585, -0.872665, 0.000000, 0.436332, 506.143, 513.182, 521.123, 483.217, 490.23, 633.976, 5.632
0.000000, -0.087266, 0.087266, 0.001523, 0.785398, 0.087266, 0.001523, 0.785398, 0.000000, -0.034907, 0.715585, -0.872665, 0.000000, 0.436332, 0.000000, 0.034907, 0.715585, -0.872665, 0.000000, 0.436332, 508.399, 515.822, 519.47, 476.335, 486.093, 635.118, 5.648
0.000000, -0.087266, 0.087266, 0.001523, 0.785398, 0.087266, 0.001523, 0.785398, 0.000000, -0.034907, 0.715585, -0.872665, 0.000000, 0.436332, 0.000000, 0.034907, 0.715585, -0.872665, 0.000000, 0.436332, 510.628, 518.474, 517.735, 475.905, 483.903, 637.993, 5.664
0.000000, -0.087266, 0.087266, 0.001523, 0.785398, 0.087266, 0.001523, 0.785398, 0.000000, -0.034907, 0.715585, -0.872665, 0.000000, 0.436332, 0.000000, 0.034907, 0.715585, -0.872665, 0.000000, 0.436332, 512.143, 518.853, 515.442, 484.18, 479.478, 646.578, 5.68
0.000000, -0.087266, 0.087266, 0.001523, 0.785398, 0.087266, 0.001523, 0.785398, 0.000000, -0.034907, 0.715585, -0.872665, 0.000000, 0.436332, 0.000000, 0.034907, 0.715585, -0.872665, 0.000000, 0.436332, 513.741, 519.226, 514.474, 484.531, 482.681, 642.198, 5.696
0.000000, -0.087266, 0.087266, 0.001523, 0.785398, 0.087266, 0.001523, 0.785398, 0.000000, -0.034907, 0.715585, -0.872665, 0.000000, 0.436332, 0.000000, 0.034907, 0.715585, -0.872665, 0.000000, 0.436332, 515.832, 519.62, 513.492, 485.266, 499.965, 637.536, 5.712
0.000000, -0.087266, 0.087266, 0.001523, 0.785398, 0.087266, 0.001523, 0.785398, 0.000000, -0.034907, 0.715585, -0.872665, 0.000000, 0.436332, 0.000000, 0.034907, 0.715585, -0.872665, 0.000000, 0.436332, 517.697, 520.015, 513.153, 484.158, 497.429, 635.641, 5.728
0.000000, -0.087266, 0.087266, 0.001523, 0.785398, 0.087266, 0.001523, 0.785398, 0.000000, -0.034907, 0.715585, -0.872665, 0.000000, 0.436332, 0.000000, 0.034907, 0.715585, -0.872665, 0.000000, 0.436332, 520.057, 518.091, 513.437, 486.277, 494.423, 637.064, 5.744
0.000000, -0.087266, 0.087266, 0.001523, 0.785398, 0.087266, 0.001523, 0.785398, 0.000000, -0.034907, 0.715585, -0.872665, 0.000000, 0.436332, 0.000000, 0.034907, 0.715585, -0.872665, 0.000000, 0.436332, 522.006, 516.034, 513.697, 485.32, 493.066, 641.223, 5.76
0.000000, -0.087266, 0.087266, 0.001523, 0.785398, 0.087266, 0.001523, 0.785398, 0.000000, -0.034907, 0.715585, -0.872665, 0.000000, 0.436332, 0.000000, 0.034907, 0.715585, -0.872665, 0.000000, 0.436332, 523.795, 514.004, 513.896, 484.266, 491.163, 639.754, 5.776
0.000000, -0.087266, 0.087266, 0.001523, 0.785398, 0.087266, 0.001523, 0.785398, 0.000000, -0.034907, 0.715585, -0.872665, 0.000000, 0.436332, 0.000000, 0.034907, 0.715585, -0.872665, 0.000000, 0.436332, 522.98, 513.906, 513.691, 475.685, 484.275, 633.515, 5.792
0.000000, -0.087266, 0.087266, 0.001523, 0.785398, 0.087266, 0.001523, 0.785398, 0.000000, -0.034907, 0.715585, -0.872665, 0.000000, 0.436332, 0.000000, 0.034907, 0.715585, -0.872665, 0.000000, 0.436332, 522.231, 512.426, 513.965, 483.643, 483.157, 635.048, 5.808
0.000000, -0.087266, 0.087266, 0.001523, 0.785398, 0.087266, 0.001523, 0.785398, 0.000000, -0.034907, 0.715585, -0.872665, 0.000000, 0.436332, 0.000000, 0.034907, 0.715585, -0.872665, 0.000000, 0.436332, 522.121, 511.942, 514.421, 479.408, 484.68, 632.243, 5.824
0.000000, -0.087266, 0.087266, 0.001523, 0.785398, 0.087266, 0.001523, 0.785398, 0.000000, -0.034907, 0.715585, -0.872665, 0.000000, 0.436332, 0.000000, 0.034907, 0.715585, -0.872665, 0.000000, 0.436332, 522.996, 511.786, 514.884, 478.605, 488.229, 631.767, 5.84
0.000000, -0.087266, 0.087266, 0.001523, 0.785398, 0.087266, 0.001523, 0.785398, 0.000000, -0.034907, 0.715585, -0.872665, 0.000000, 0.436332, 0.000000, 0.034907, 0.715585, -0.872665, 0.000000, 0.436332, 523.88, 511.637, 515.614, 478.31, 489.931, 630.62, 5.856
0.000000, -0.087266, 0.087266, 0.001523, 0.785398, 0.087266, 0.001523, 0.785398, 0.000000, -0.034907, 0.715585, -0.872665, 0.000000, 0.436332, 0.000000, 0.034907, 0.715585, -0.872665, 0.000000, 0.436332, 524.793, 511.554, 516.087, 479.411, 488.675, 629.895, 5.872
0.000000, -0.087266, 0.087266, 0.001523, 0.785398, 0.087266, 0.001523, 0.785398, 0.000000, -0.034907, 0.715585, -0.872665, 0.000000, 0.436332, 0.000000, 0.034907, 0.715585, -0.872665, 0.000000, 0.436332, 525.669, 511.518, 516.67, 470.021, 495.174, 665.038, 5.888
0.000000, -0.087266, 0.087266, 0.001523, 0.785398, 0.087266, 0.001523, 0.785398, 0.000000, -0.034907, 0.715585, -0.872665, 0.000000, 0.436332, 0.000000, 0.034907, 0.715585, -0.872665, 0.000000, 0.436332, 526.441, 511.438, 517.165, 479.881, 498.31, 627.223, 5.904
0.000000, -0.087266, 0.087266, 0.001523, 0.785398, 0.087266, 0.001523, 0.785398, 0.000000, -0.034907, 0.715585, -0.872665, 0.000000, 0.436332, 0.000000, 0.034907, 0.715585, -0.872665, 0.000000, 0.436332, 527.328, 511.409, 516.567, 477.075, 499.222, 635.359, 5.92
0.000000, -0.087266, 0.087266, 0.001523, 0.785398, 0.087266, 0.001523, 0.785398, 0.000000, -0.034907, 0.715585, -0.872665, 0.000000, 0.436332, 0.000000, 0.034907, 0.715585, -0.872665, 0.000000, 0.436332, 525.07, 512.322, 515.851, 437.644, 546.047, 681.937, 5.936
0.000000, -0.087266, 0.087266, 0.001523, 0.785398, 0.087266, 0.001523, 0.785398, 0.000000, -0.034907, 0.715585, -0.872665, 0.000000, 0.436332, 0.000000, 0.034907, 0.715585, -0.872665, 0.000000, 0.436332, 524.545, 512.214, 515.91, 488.126, 522.507, 624.648, 5.952
0.000000, -0.087266, 0.087266, 0.001523, 0.785398, 0.087266, 0.001523, 0.785398, 0.000000, -0.034907, 0.715585, -0.872665, 0.000000, 0.436332, 0.000000, 0.034907, 0.715585, -0.872665, 0.000000, 0.436332, 524.313, 510.49, 516.389, 489.499, 537.613, 658.019, 5.968
0.000000, -0.087266, 0.087266, 0.001523, 0.785398, 0.087266, 0.001523, 0.785398, 0.000000, -0.034907, 0.715585, -0.872665, 0.000000, 0.436332, 0.000000, 0.034907, 0.715585, -0.872665, 0.000000, 0.436332, 523.043, 510.291, 515.784, 485.621, 536.465, 629.009, 5.984
0.000000, -0.087266, 0.087266, 0.001523, 0.785398, 0.087266, 0.001523, 0.785398, 0.000000, -0.034907, 0.715585, -0.872665, 0.000000, 0.436332, 0.000000, 0.034907, 0.715585, -0.872665, 0.000000, 0.436332, 521.607, 510.312, 515.145, 481.64, 549.471, 638.31, 6
0.000000, -0.087266, 0.087266, 0.001523, 0.785398, 0.087266, 0.001523, 0.785398, 0.000000, -0.034907, 0.715585, -0.872665, 0.000000, 0.436332, 0.000000, 0.034907, 0.715585, -0.872665, 0.000000, 0.436332, 520.306, 510.756, 514.497, 477.08, 547.909, 629.753, 6.016
0.000000, -0.087266, 0.087266, 0.001523, 0.785398, 0.087266, 0.001523, 0.785398, 0.000000, -0.034907, 0.715585, -0.872665, 0.000000, 0.436332, 0.000000, 0.034907, 0.715585, -0.872665, 0.000000, 0.436332, 518.981, 511.327, 514.069, 477.738, 549.122, 630.486, 6.032
0.000000, -0.087266, 0.087266, 0.001523, 0.785398, 0.087266, 0.001523, 0.785398, 0.000000, -0.034907, 0.715585, -0.872665, 0.000000, 0.436332, 0.000000, 0.034907, 0.715585, -0.872665, 0.000000, 0.436332, 518.04, 511.534, 513.783, 480.952, 540.734, 631.787, 6.048
0.000000, -0.087266, 0.087266, 0.001523, 0.785398, 0.087266, 0.001523, 0.785398, 0.000000, -0.034907, 0.715585, -0.872665, 0.000000, 0.436332, 0.000000, 0.034907, 0.715585, -0.872665, 0.000000, 0.436332, 516.901, 511.756, 513.443, 481.417, 546.425, 630.167, 6.064
0.000000, -0.087266, 0.087266, 0.001523, 0.785398, 0.087266, 0.001523, 0.785398, 0.000000, -0.034907, 0.715585, -0.872665, 0.000000, 0.436332, 0.000000, 0.034907, 0.715585, -0.872665, 0.000000, 0.436332, 515.79, 511.922, 513.111, 482.145, 545.791, 629.419, 6.08
0.000000, -0.087266, 0.087266, 0.001523, 0.785398, 0.087266, 0.001523, 0.785398, 0.000000, -0.034907, 0.715585, -0.872665, 0.000000, 0.436332, 0.000000, 0.034907, 0.715585, -0.872665, 0.000000, 0.436332, 516.872, 512.019, 512.719, 481.34, 542.287, 635.574, 6.096
0.000000, -0.087266, 0.087266, 0.001523, 0.785398, 0.087266, 0.001523, 0.785398, 0.000000, -0.034907, 0.715585, -0.872665, 0.000000, 0.436332, 0.000000, 0.034907, 0.715585, -0.872665, 0.000000, 0.436332, 517.411, 512.115, 512.366, 481.011, 542.662, 634.475, 6.112
0.000000, -0.087266, 0.087266, 0.001523, 0.785398, 0.087266, 0.001523, 0.785398, 0.000000, -0.034907, 0.715585, -0.872665, 0.000000, 0.436332, 0.000000, 0.034907, 0.715585, -0.872665, 0.000000, 0.436332, 516.449, 512.297, 513.578, 476.768, 544.468, 630.115, 6.128
0.000000, -0.087266, 0.087266, 0.001523, 0.785398, 0.087266, 0.001523, 0.785398, 0.000000, -0.034907, 0.715585, -0.872665, 0.000000, 0.436332, 0.000000, 0.034907, 0.715585, -0.872665, 0.000000, 0.436332, 515.425, 512.382, 513.195, 480.589, 540.886, 629.86, 6.144
0.000000, -0.087266, 0.087266, 0.001523, 0.785398, 0.087266, 0.001523, 0.785398, 0.000000, -0.034907, 0.715585, -0.872665, 0.000000, 0.436332, 0.000000, 0.034907, 0.715585, -0.872665, 0.000000, 0.436332, 513.102, 512.474, 512.892, 479.917, 523.023, 628.455, 6.16
0.000000, -0.087266, 0.087266, 0.001523, 0.785398, 0.087266, 0.001523, 0.785398, 0.000000, -0.034907, 0.715585, -0.872665, 0.000000, 0.436332, 0.000000, 0.034907, 0.715585, -0.872665, 0.000000, 0.436332, 511.536, 512.531, 512.556, 479.751, 533.236, 628.3, 6.176
0.000000, -0.087266, 0.087266, 0.001523, 0.785398, 0.087266, 0.001523, 0.785398, 0.000000, -0.034907, 0.715585, -0.872665, 0.000000, 0.436332, 0.000000, 0.034907, 0.715585, -0.872665, 0.000000, 0.436332, 510.537, 512.58, 512.154, 480.033, 540.281, 629.056, 6.192
0.000000, -0.087266, 0.087266, 0.001523, 0.785398, 0.087266, 0.001523, 0.785398, 0.000000, -0.034907, 0.715585, -0.872665, 0.000000, 0.436332, 0.000000, 0.034907, 0.715585, -0.872665, 0.000000, 0.436332, 509.564, 512.647, 511.813, 480.126, 539.638, 629.394, 6.208
0.000000, -0.087266, 0.087266, 0.001523, 0.785398, 0.087266, 0.001523, 0.785398, 0.000000, -0.034907, 0.715585, -0.872665, 0.000000, 0.436332, 0.000000, 0.034907, 0.715585, -0.872665, 0.000000, 0.436332, 508.6, 512.657, 511.517, 478.579, 538.526, 629.214, 6.224
0.000000, -0.087266, 0.087266, 0.001523, 0.785398, 0.087266, 0.001523, 0.785398, 0.000000, -0.034907, 0.715585, -0.872665, 0.000000, 0.436332, 0.000000, 0.034907, 0.715585, -0.872665, 0.000000, 0.436332, 507.641, 512.74, 511.203, 480.193, 536.946, 629.719, 6.24
0.000000, -0.087266, 0.087266, 0.001523, 0.785398, 0.087266, 0.001523, 0.785398, 0.000000, -0.034907, 0.715585, -0.872665, 0.000000, 0.436332, 0.000000, 0.034907, 0.715585, -0.872665, 0.000000, 0.436332, 506.667, 512.665, 510.864, 476.289, 532.307, 631.713, 6.256
0.000000, -0.087266, 0.087266, 0.001523, 0.785398, 0.087266, 0.001523, 0.785398, 0.000000, -0.034907, 0.715585, -0.872665, 0.000000, 0.436332, 0.000000, 0.034907, 0.715585, -0.872665, 0.000000, 0.436332, 505.7, 512.493, 510.515, 474.182, 528.232, 631.033, 6.272
0.000000, -0.087266, 0.087266, 0.001523, 0.785398, 0.087266, 0.001523, 0.785398, 0.000000, -0.034907, 0.715585, -0.872665, 0.000000, 0.436332, 0.000000, 0.034907, 0.715585, -0.872665, 0.000000, 0.436332, 504.748, 512.384, 510.184, 475.721, 526.259, 629.282, 6.288
0.000000, -0.087266, 0.087266, 0.001523, 0.785398, 0.087266, 0.001523, 0.785398, 0.000000, -0.034907, 0.715585, -0.872665, 0.000000, 0.436332, 0.000000, 0.034907, 0.715585, -0.872665, 0.000000, 0.436332, 503.794, 512.284, 509.86, 475.92, 523.911, 629.607, 6.304
0.000000, -0.087266, 0.087266, 0.001523, 0.785398, 0.087266, 0.001523, 0.785398, 0.000000, -0.034907, 0.715585, -0.872665, 0.000000, 0.436332, 0.000000, 0.034907, 0.715585, -0.872665, 0.000000, 0.436332, 504.818, 512.14, 509.453, 475.348, 540.385, 636.148, 6.32
0.000000, -0.087266, 0.087266, 0.001523, 0.785398, 0.087266, 0.001523, 0.785398, 0.000000, -0.034907, 0.715585, -0.872665, 0.000000, 0.436332, 0.000000, 0.034907, 0.715585, -0.872665, 0.000000, 0.436332, 505.77, 511.789, 509.987, 464.181, 530.204, 643.417, 6.336
0.000000, -0.087266, 0.087266, 0.001523, 0.785398, 0.087266, 0.001523, 0.785398, 0.000000, -0.034907, 0.715585, -0.872665, 0.000000, 0.436332, 0.000000, 0.034907, 0.715585, -0.872665, 0.000000, 0.436332, 505.348, 511.757, 509.839, 478.278, 524.799, 629.116, 6.352
0.000000, -0.087266, 0.087266, 0.001523, 0.785398, 0.087266, 0.001523, 0.785398, 0.000000, -0.034907, 0.715585, -0.872665, 0.000000, 0.436332, 0.000000, 0.034907, 0.715585, -0.872665, 0.000000, 0.436332, 505.162, 511.421, 509.998, 466.95, 517.627, 636.388, 6.368
0.000000, -0.087266, 0.087266, 0.001523, 0.785398, 0.087266, 0.001523, 0.785398, 0.000000, -0.034907, 0.715585, -0.872665, 0.000000, 0.436332, 0.000000, 0.034907, 0.715585, -0.872665, 0.000000, 0.436332, 505.726, 511.456, 510.052, 480.159, 506.099, 647.102, 6.384
0.000000, -0.087266, 0.087266, 0.001523, 0.785398, 0.087266, 0.001523, 0.785398, 0.000000, -0.034907, 0.715585, -0.872665, 0.000000, 0.436332, 0.000000, 0.034907, 0.715585, -0.872665, 0.000000, 0.436332, 506.264, 511.722, 510.235, 478.557, 504.02, 637.978, 6.4
0.000000, -0.087266, 0.087266, 0.001523, 0.785398, 0.087266, 0.001523, 0.785398, 0.000000, -0.034907, 0.715585, -0.872665, 0.000000, 0.436332, 0.000000, 0.034907, 0.715585, -0.872665, 0.000000, 0.436332, 506.755, 511.917, 510.415, 479.205, 504.627, 634.944, 6.416
0.000000, -0.087266, 0.087266, 0.001523, 0.785398, 0.087266, 0.001523, 0.785398, 0.000000, -0.034907, 0.715585, -0.872665, 0.000000, 0.436332, 0.000000, 0.034907, 0.715585, -0.872665, 0.000000, 0.436332, 507.634, 512.039, 510.539, 478.759, 533.784, 638.318, 6.432
0.000000, -0.087266, 0.087266, 0.001523, 0.785398, 0.087266, 0.001523, 0.785398, 0.000000, -0.034907, 0.715585, -0.872665, 0.000000, 0.436332, 0.000000, 0.034907, 0.715585, -0.872665, 0.000000, 0.436332, 508.288, 512.141, 510.699, 478.75, 510.286, 636.362, 6.448
0.000000, -0.087266, 0.087266, 0.001523, 0.785398, 0.087266, 0.001523, 0.785398, 0.000000, -0.034907, 0.715585, -0.872665, 0.000000, 0.436332, 0.000000, 0.034907, 0.715585, -0.872665, 0.000000, 0.436332, 508.927, 512.224, 510.853, 478.453, 509.619, 635.954, 6.464
0.000000, -0.087266, 0.087266, 0.001523, 0.785398, 0.087266, 0.001523, 0.785398, 0.000000, -0.034907, 0.715585, -0.872665, 0.000000, 0.436332, 0.000000, 0.034907, 0.715585, -0.872665, 0.000000, 0.436332, 508.591, 512.373, 511.122, 475.909, 495.341, 641.875, 6.48
0.000000, -0.087266, 0.087266, 0.001523, 0.785398, 0.087266, 0.001523, 0.785398, 0.000000, -0.034907, 0.715585, -0.872665, 0.000000, 0.436332, 0.000000, 0.034907, 0.715585, -0.872665, 0.000000, 0.436332, 507.3, 512.163, 511.678, 472.431, 481.599, 640.215, 6.496
0.000000, -0.087266, 0.087266, 0.001523, 0.785398, 0.087266, 0.001523, 0.785398, 0.000000, -0.034907, 0.715585, -0.872665, 0.000000, 0.436332, 0.000000, 0.034907, 0.715585, -0.872665, 0.000000, 0.436332, 507.737, 512.124, 512.133, 476.742, 495.79, 631.609, 6.512
0.000000, -0.087266, 0.087266, 0.001523, 0.785398, 0.087266, 0.001523, 0.785398, 0.000000, -0.034907, 0.715585, -0.872665, 0.000000, 0.436332, 0.000000, 0.034907, 0.715585, -0.872665, 0.000000, 0.436332, 508.2, 512.088, 512.621, 476.373, 497.426, 633.214, 6.528
0.000000, -0.087266, 0.087266, 0.001523, 0.785398, 0.087266, 0.001523, 0.785398, 0.000000, -0.034907, 0.715585, -0.872665, 0.000000, 0.436332, 0.000000, 0.034907, 0.715585, -0.872665, 0.000000, 0.436332, 508.7, 512.058, 513.087, 476.372, 496.663, 633.515, 6.544
0.000000, -0.087266, 0.087266, 0.001523, 0.785398, 0.087266, 0.001523, 0.785398, 0.000000, -0.034907, 0.715585, -0.872665, 0.000000, 0.436332, 0.000000, 0.034907, 0.715585, -0.872665, 0.000000, 0.436332, 509.27, 512.044, 513.218, 476.435, 495.648, 633.616, 6.56
0.000000, -0.087266, 0.087266, 0.001523, 0.785398, 0.087266, 0.001523, 0.785398, 0.000000, -0.034907, 0.715585, -0.872665, 0.000000, 0.436332, 0.000000, 0.034907, 0.715585, -0.872665, 0.000000, 0.436332, 509.812, 512.019, 513.344, 476.046, 496.073, 633.928, 6.576
0.000000, -0.087266, 0.087266, 0.001523, 0.785398, 0.087266, 0.001523, 0.785398, 0.000000, -0.034907, 0.715585, -0.872665, 0.000000, 0.436332, 0.000000, 0.034907, 0.715585, -0.872665, 0.000000, 0.436332, 510.339, 511.986, 513.396, 475.809, 496.461, 634.054, 6.592
0.000000, -0.087266, 0.087266, 0.001523, 0.785398, 0.087266, 0.001523, 0.785398, 0.000000, -0.034907, 0.715585, -0.872665, 0.000000, 0.436332, 0.000000, 0.034907, 0.715585, -0.872665, 0.000000, 0.436332, 511.066, 512.063, 511.763, 477.17, 492.185, 634.086, 6.608
0.000000, -0.087266, 0.087266, 0.001523, 0.785398, 0.087266, 0.001523, 0.785398, 0.000000, -0.034907, 0.715585, -0.872665, 0.000000, 0.436332, 0.000000, 0.034907, 0.715585, -0.872665, 0.000000, 0.436332, 511.6, 512.016, 511.884, 475.352, 496.808, 634.29, 6.624
0.000000, -0.087266, 0.087266, 0.001523, 0.785398, 0.087266, 0.001523, 0.785398, 0.000000, -0.034907, 0.715585, -0.872665, 0.000000, 0.436332, 0.000000, 0.034907, 0.715585, -0.872665, 0.000000, 0.436332, 512.588, 511.936, 512.177, 474.691, 490.513, 635.073, 6.64
0.000000, -0.087266, 0.087266, 0.001523, 0.785398, 0.087266, 0.001523, 0.785398, 0.000000, -0.034907, 0.715585, -0.872665, 0.000000, 0.436332, 0.000000, 0.034907, 0.715585, -0.872665, 0.000000, 0.436332, 513.035, 511.861, 512.295, 475.015, 498.685, 634.094, 6.656
0.000000, -0.087266, 0.087266, 0.001523, 0.785398, 0.087266, 0.001523, 0.785398, 0.000000, -0.033231, 0.711396, -0.867080, 0.002094, 0.434238, 0.000000, 0.038587, 0.709594, -0.866223, 0.006919, 0.433114, 513.514, 511.726, 512.319, 476.273, 503.723, 641.102, 6.672
0.000000, -0.087266, 0.087266, 0.001523, 0.785398, 0.087266, 0.001523, 0.785398, 0.000000, -0.029880, 0.703019, -0.855910, 0.006283, 0.430049, 0.000000, 0.045949, 0.697611, -0.853338, 0.020758, 0.426677, 514.065, 511.474, 512.257, 476.876, 506.668, 643.095, 6.688
0.000000, -0.087266, 0.087266, 0.001523, 0.785398, 0.087266, 0.001523, 0.785398, 0.000000, -0.026529, 0.694641, -0.844740, 0.010472, 0.425860, 0.000000, 0.053311, 0.685628, -0.840454, 0.034597, 0.420240, 514.45, 511.256, 512.203, 476.868, 507.717, 641.984, 6.704
0.000000, -0.087266, 0.087266, 0.001523, 0.785398, 0.087266, 0.001523, 0.785398, 0.000000, -0.023178, 0.686263, -0.833570, 0.014661, 0.421671, 0.000000, 0.060673, 0.673645, -0.827570, 0.048436, 0.413803, 514.682, 511.072, 512.105, 476.98, 508.336, 640.742, 6.72
0.000000, -0.087266, 0.087266, 0.001523, 0.785398, 0.087266, 0.001523, 0.785398, 0.000000, -0.019827, 0.677886, -0.822399, 0.018850, 0.417482, 0.000000, 0.068034, 0.661662, -0.814685, 0.062275, 0.407367, 514.796, 510.92, 511.957, 477.137, 508.809, 639.658, 6.736
0.000000, -0.087266, 0.087266, 0.001523, 0.785398, 0.087266, 0.001523, 0.785398, 0.000000, -0.016476, 0.669508, -0.811229, 0.023038, 0.413294, 0.000000, 0.075396, 0.649679, -0.801801, 0.076113, 0.400930, 514.617, 509.499, 512.175, 479.579, 510.322, 642.8, 6.752
0.000000, -0.087266, 0.087266, 0.001523, 0.785398, 0.087266, 0.001523, 0.785398, 0.000000, -0.013125, 0.661131, -0.800059, 0.027227, 0.409105, 0.000000, 0.082758, 0.637696, -0.788916, 0.089952, 0.394493, 514.364, 508.655, 511.876, 476.437, 530.482, 638.085, 6.768
0.000000, -0.087266, 0.087266, 0.001523, 0.785398, 0.087266, 0.001523, 0.785398, 0.000000, -0.009774, 0.652753, -0.788889, 0.031416, 0.404916, 0.000000, 0.090120, 0.625713, -0.776032, 0.103791, 0.388056, 514.416, 508.206, 511.83, 474.334, 514.377, 637.428, 6.784
0.000000, -0.087266, 0.087266, 0.001523, 0.785398, 0.087266, 0.001523, 0.785398, 0.000000, -0.006423, 0.644376, -0.777719, 0.035605, 0.400727, 0.000000, 0.097481, 0.613730, -0.763147, 0.117630, 0.381620, 513.79, 507.703, 511.536, 470.472, 518.812, 643.353, 6.8
0.000000, -0.087266, 0.087266, 0.001523, 0.785398, 0.087266, 0.001523, 0.785398, 0.000000, -0.003072, 0.635998, -0.766549, 0.039793, 0.396539, 0.000000, 0.104843, 0.601747, -0.750263, 0.131469, 0.375183, 513.66, 507.139, 511.185, 466.537, 528.146, 632.737, 6.816
0.000000, -0.087266, 0.087266, 0.001523, 0.785398, 0.087266, 0.001523, 0.785398, 0.000000, 0.000279, 0.627620, -0.755379, 0.043982, 0.392350, 0.000000, 0.112205, 0.589764, -0.737379, 0.145308, 0.368746, 513.041, 506.615, 510.835, 466.46, 526.992, 632.945, 6.832
0.000000, -0.087266, 0.087266, 0.001523, 0.785398, 0.087266, 0.001523, 0.785398, 0.000000, 0.003630, 0.619243, -0.744209, 0.048171, 0.388161, 0.000000, 0.119567, 0.577781, -0.724494, 0.159146, 0.362310, 512.329, 505.281, 510.655, 481.216, 527.428, 638.265, 6.848
0.000000, -0.087266, 0.087266, 0.001523, 0.785398, 0.087266, 0.001523, 0.785398, 0.000000, 0.006981, 0.610865, -0.733039, 0.052360, 0.383972, 0.000000, 0.126928, 0.565798, -0.711610, 0.172985, 0.355873, 511.495, 506.462, 512.697, 462.52, 534.415, 630.793, 6.864
0.000000, -0.087266, 0.087266, 0.001523, 0.785398, 0.087266, 0.001523, 0.785398, 0.000000, 0.010332, 0.602488, -0.721868, 0.056549, 0.379783, 0.000000, 0.134290, 0.553815, -0.698725, 0.186824, 0.349436, 510.849, 507.121, 511.839, 476.622, 525.417, 632.05, 6.88
0.000000, -0.087266, 0.087266, 0.001523, 0.785398, 0.087266, 0.001523, 0.785398, 0.000000, 0.013683, 0.594110, -0.710698, 0.060737, 0.375595, 0.000000, 0.141652, 0.541832, -0.685841, 0.200663, 0.342999, 510.207, 507.209, 511.403, 484.039, 525.458, 634.838, 6.896
0.000000, -0.087266, 0.087266, 0.001523, 0.785398, 0.087266, 0.001523, 0.785398, 0.000000, 0.017034, 0.585732, -0.699528, 0.064926, 0.371406, 0.000000, 0.149013, 0.529849, -0.672957, 0.214502, 0.336563, 509.466, 507.273, 511.119, 499.841, 527.9, 633.576, 6.912
0.000000, -0.087266, 0.087266, 0.001523, 0.785398, 0.087266, 0.001523, 0.785398, 0.000000, 0.020385, 0.577355, -0.688358, 0.069115, 0.367217, 0.000000, 0.156375, 0.517866, -0.660072, 0.228340, 0.330126, 508.864, 507.829, 510.955, 489.372, 524.816, 635.146, 6.928
0.000000, -0.087266, 0.087266, 0.001523, 0.785398, 0.087266, 0.001523, 0.785398, 0.000000, 0.023736, 0.568977, -0.677188, 0.073304, 0.363028, 0.000000, 0.163737, 0.505883, -0.647188, 0.242179, 0.323689, 508.426, 508.36, 510.747, 490.217, 521.182, 635.744, 6.944
0.000000, -0.087266, 0.087266, 0.001523, 0.785398, 0.087266, 0.001523, 0.785398, 0.000000, 0.027088, 0.560600, -0.666018, 0.077493, 0.358839, 0.000000, 0.171099, 0.493900, -0.634303, 0.256018, 0.317252, 508.422, 508.13, 510.822, 486.701, 512.633, 629.969, 6.96
0.000000, -0.087266, 0.087266, 0.001523, 0.785398, 0.087266, 0.001523, 0.785398, 0.000000, 0.030439, 0.552222, -0.654848, 0.081681, 0.354651, 0.000000, 0.178460, 0.481917, -0.621419, 0.269857, 0.310816, 508.581, 507.445, 510.555, 487.942, 505.424, 638.689, 6.976
0.000000, -0.087266, 0.087266, 0.001523, 0.785398, 0.087266, 0.001523, 0.785398, 0.000000, 0.033790, 0.543845, -0.643678, 0.085870, 0.350462, 0.000000, 0.185822, 0.469934, -0.608534, 0.283696, 0.304379, 508.665, 506.991, 510.569, 486.146, 506.909, 633.514, 6.992
0.000000, -0.087266, 0.087266, 0.001523, 0.785398, 0.087266, 0.001523, 0.785398, 0.000000, 0.037141, 0.535467, -0.632508, 0.090059, 0.346273, 0.000000, 0.193184, 0.457951, -0.595650, 0.297535, 0.297942, 508.746, 506.495, 510.639, 482.432, 505.565, 636.149, 7.008
0.000000, -0.087266, 0.087266, 0.001523, 0.785398, 0.087266, 0.001523, 0.785398, 0.000000, 0.040492, 0.527089, -0.621337, 0.094248, 0.342084, 0.000000, 0.200546, 0.445968, -0.582766, 0.311373, 0.291505, 508.856, 506.333, 510.703, 483.278, 504.33, 636.227, 7.024
0.000000, -0.087266, 0.087266, 0.001523, 0.785398, 0.087266, 0.001523, 0.785398, 0.000000, 0.043843, 0.518712, -0.610167, 0.098436, 0.337896, 0.000000, 0.207907, 0.433985, -0.569881, 0.325212, 0.285069, 509.018, 506.331, 510.787, 483.824, 503.351, 635.719, 7.04
0.000000, -0.087266, 0.087266, 0.001523, 0.785398, 0.087266, 0.001523, 0.785398, 0.000000, 0.047194, 0.510334, -0.598997, 0.102625, 0.333707, 0.000000, 0.215269, 0.422002, -0.556997, 0.339051, 0.278632, 509.231, 506.403, 510.876, 484.811, 502.074, 636.71, 7.056
0.000000, -0.087266, 0.087266, 0.001523, 0.785398, 0.087266, 0.001523, 0.785398, 0.000000, 0.050545, 0.501957, -0.587827, 0.106814, 0.329518, 0.000000, 0.222631, 0.410019, -0.544112, 0.352890, 0.272195, 509.409, 506.547, 510.95, 486.341, 502.752, 637.124, 7.072
0.000000, -0.087266, 0.087266, 0.001523, 0.785398, 0.087266, 0.001523, 0.785398, 0.000000, 0.053896, 0.493579, -0.576657, 0.111003, 0.325329, 0.000000, 0.229993, 0.398036, -0.531228, 0.366729, 0.265758, 509.68, 506.684, 511.034, 488.51, 500.4, 637.368, 7.088
0.000000, -0.087266, 0.087266, 0.001523, 0.785398, 0.087266, 0.001523, 0.785398, 0.000000, 0.057247, 0.485201, -0.565487, 0.115192, 0.321140, 0.000000, 0.237354, 0.386053, -0.518344, 0.380567, 0.259322, 509.961, 506.834, 511.116, 489.742, 500.206, 637.645, 7.104
0.000000, -0.087266, 0.087266, 0.001523, 0.785398, 0.087266, 0.001523, 0.785398, 0.000000, 0.060598, 0.476824, -0.554317, 0.119380, 0.316952, 0.000000, 0.244716, 0.374070, -0.505459, 0.394406, 0.252885, 510.226, 506.986, 511.193, 490.709, 500.417, 637.939, 7.12
0.000000, -0.087266, 0.087266, 0.001523, 0.785398, 0.087266, 0.001523, 0.785398, 0.000000, 0.063949, 0.468446, -0.543147, 0.123569, 0.312763, 0.000000, 0.252078, 0.362087, -0.492575, 0.408245, 0.246448, 510.94, 507.089, 511.353, 490.89, 494.318, 639.692, 7.136
0.000000, -0.087266, 0.087266, 0.001523, 0.785398, 0.087266, 0.001523, 0.785398, 0.000000, 0.067300, 0.460069, -0.531977, 0.127758, 0.308574, 0.000000, 0.259439, 0.350104, -0.479690, 0.422084, 0.240012, 511.147, 507.159, 511.423, 491.874, 500.95, 637.852, 7.152
0.000000, -0.087266, 0.087266, 0.001523, 0.785398, 0.087266, 0.001523, 0.785398, 0.000000, 0.070651, 0.451691, -0.520806, 0.131947, 0.304385, 0.000000, 0.266801, 0.338121, -0.466806, 0.435923, 0.233575, 511.34, 507.24, 511.487, 492.529, 501.516, 637.755, 7.168
0.000000, -0.087266, 0.087266, 0.001523, 0.785398, 0.087266, 0.001523, 0.785398, 0.000000, 0.074002, 0.443314, -0.509636, 0.136135, 0.300197, 0.000000, 0.274163, 0.326138, -0.453921, 0.449762, 0.227138, 511.514, 507.331, 511.546, 493.145, 501.93, 637.832, 7.184
0.000000, -0.087266, 0.087266, 0.001523, 0.785398, 0.087266, 0.001523, 0.785398, 0.000000, 0.077353, 0.434936, -0.498466, 0.140324, 0.296008, 0.000000, 0.281525, 0.314155, -0.441037, 0.463600, 0.220701, 511.668, 507.433, 511.598, 493.755, 502.323, 637.924, 7.2
0.000000, -0.087266, 0.087266, 0.001523, 0.785398, 0.087266, 0.001523, 0.785398, 0.000000, 0.080704, 0.426558, -0.487296, 0.144513, 0.291819, 0.000000, 0.288886, 0.302172, -0.428153, 0.477439, 0.214265, 511.806, 507.549, 511.644, 494.38, 502.661, 638.008, 7.216
0.000000, -0.087266, 0.087266, 0.001523, 0.785398, 0.087266, 0.001523, 0.785398, 0.000000, 0.084055, 0.418181, -0.476126, 0.148702, 0.287630, 0.000000, 0.296248, 0.290189, -0.415268, 0.491278, 0.207828, 511.939, 507.682, 511.686, 494.978, 502.844, 638.191, 7.232
0.000000, -0.087266, 0.087266, 0.001523, 0.785398, 0.087266, 0.001523, 0.785398, 0.000000, 0.087406, 0.409803, -0.464956, 0.152891, 0.283441, 0.000000, 0.303610, 0.278206, -0.402384, 0.505117, 0.201391, 512.064, 507.828, 511.723, 495.532, 503.135, 638.408, 7.248
0.000000, -0.087266, 0.087266, 0.001523, 0.785398, 0.087266, 0.001523, 0.785398, 0.000000, 0.090757, 0.401426, -0.453786, 0.157079, 0.279253, 0.000000, 0.310972, 0.266223, -0.389499, 0.518956, 0.194954, 512.178, 507.987, 511.754, 496.087, 503.452, 638.563, 7.264
0.000000, -0.087266, 0.087266, 0.001523, 0.785398, 0.087266, 0.001523, 0.785398, 0.000000, 0.094108, 0.393048, -0.442616, 0.161268, 0.275064, 0.000000, 0.318333, 0.254240, -0.376615, 0.532794, 0.188518, 512.282, 508.162, 511.781, 496.647, 503.766, 638.69, 7.28
0.000000, -0.087266, 0.087266, 0.001523, 0.785398, 0.087266, 0.001523, 0.785398, 0.000000, 0.097459, 0.384670, -0.431446, 0.165457, 0.270875, 0.000000, 0.325695, 0.242257, -0.363731, 0.546633, 0.182081, 512.378, 508.364, 511.799, 497.265, 504.021, 638.804, 7.296
