neck_yaw, neck_pitch, left_shoulder_pitch [shoulder], left_shoulder_roll, left_elbow, right_shoulder_pitch [shoulder], right_shoulder_roll, right_elbow, left_hip_yaw [hip], left_hip_roll, left_hip_pitch, left_knee, left_ankle_roll, left_ankle_pitch, right_hip_yaw [hip], right_hip_roll, right_hip_pitch, right_knee, right_ankle_roll, right_ankle_pitch, gyro_x, gyro_y, gyro_z,acc_x, acc_y, acc_z
0.000000, -0.087266, 0.087266, 0.001523, 0.785398, 0.087266, 0.001523, 0.785398, 0.000000, -0.034907, 0.715585, -0.872665, 0.000000, 0.436332, 0.000000, 0.034907, 0.715585, -0.872665, 0.000000, 0.436332, 512.008, 512.07, 512.219, 520.453, 512.871, 513.948, 0.032
0.000000, -0.087266, 0.087266, 0.001523, 0.785398, 0.087266, 0.001523, 0.785398, 0.000000, -0.034907, 0.715585, -0.872665, 0.000000, 0.436332, 0.000000, 0.034907, 0.715585, -0.872665, 0.000000, 0.436332, 511.24, 514.847, 511.718, 455.698, 527.92, 983.179, 0.048
0.000000, -0.087266, 0.087266, 0.001523, 0.785398, 0.087266, 0.001523, 0.785398, 0.000000, -0.034907, 0.715585, -0.872665, 0.000000, 0.436332, 0.000000, 0.034907, 0.715585, -0.872665, 0.000000, 0.436332, 510.953, 515.183, 511.933, 507.65, 509.889, 489.912, 0.064
0.000000, -0.087266, 0.087266, 0.001523, 0.785398, 0.087266, 0.001523, 0.785398, 0.000000, -0.034907, 0.715585, -0.872665, 0.000000, 0.436332, 0.000000, 0.034907, 0.715585, -0.872665, 0.000000, 0.436332, 511.121, 518.671, 512.395, 490.136, 506.98, 534.229, 0.08
0.000000, -0.087266, 0.087266, 0.001523, 0.785398, 0.087266, 0.001523, 0.785398, 0.000000, -0.034907, 0.715585, -0.872665, 0.000000, 0.436332, 0.000000, 0.034907, 0.715585, -0.872665, 0.000000, 0.436332, 510.665, 521.076, 512.874, 494.577, 494.925, 603.757, 0.096
0.000000, -0.087266, 0.087266, 0.001523, 0.785398, 0.087266, 0.001523, 0.785398, 0.000000, -0.034907, 0.715585, -0.872665, 0.000000, 0.436332, 0.000000, 0.034907, 0.715585, -0.872665, 0.000000, 0.436332, 511.524, 524.535, 512.715, 510.664, 500.753, 634.222, 0.112
0.000000, -0.087266, 0.087266, 0.001523, 0.785398, 0.087266, 0.001523, 0.785398, 0.000000, -0.034907, 0.715585, -0.872665, 0.000000, 0.436332, 0.000000, 0.034907, 0.715585, -0.872665, 0.000000, 0.436332, 511.568, 526.144, 512.67, 526.677, 492.699, 647.571, 0.128
0.000000, -0.087266, 0.087266, 0.001523, 0.785398, 0.087266, 0.001523, 0.785398, 0.000000, -0.034907, 0.715585, -0.872665, 0.000000, 0.436332, 0.000000, 0.034907, 0.715585, -0.872665, 0.000000, 0.436332, 512.36, 525.989, 512.471, 523.48, 499.391, 656.407, 0.144
0.000000, -0.087266, 0.087266, 0.001523, 0.785398, 0.087266, 0.001523, 0.785398, 0.000000, -0.034907, 0.715585, -0.872665, 0.000000, 0.436332, 0.000000, 0.034907, 0.715585, -0.872665, 0.000000, 0.436332, 513.244, 525.864, 512.253, 521.555, 506.364, 659.768, 0.16
0.000000, -0.087266, 0.087266, 0.001523, 0.785398, 0.087266, 0.001523, 0.785398, 0.000000, -0.034907, 0.715585, -0.872665, 0.000000, 0.436332, 0.000000, 0.034907, 0.715585, -0.872665, 0.000000, 0.436332, 513.929, 525.808, 511.917, 519.526, 509.266, 660.578, 0.176
0.000000, -0.087266, 0.087266, 0.001523, 0.785398, 0.087266, 0.001523, 0.785398, 0.000000, -0.034907, 0.715585, -0.872665, 0.000000, 0.436332, 0.000000, 0.034907, 0.715585, -0.872665, 0.000000, 0.436332, 514.404, 525.721, 511.95, 514.013, 511.087, 658.219, 0.192
0.000000, -0.087266, 0.087266, 0.001523, 0.785398, 0.087266, 0.001523, 0.785398, 0.000000, -0.034907, 0.715585, -0.872665, 0.000000, 0.436332, 0.000000, 0.034907, 0.715585, -0.872665, 0.000000, 0.436332, 514.712, 525.66, 512.049, 511.81, 511.425, 656.572, 0.208
0.000000, -0.087266, 0.087266, 0.001523, 0.785398, 0.087266, 0.001523, 0.785398, 0.000000, -0.034907, 0.715585, -0.872665, 0.000000, 0.436332, 0.000000, 0.034907, 0.715585, -0.872665, 0.000000, 0.436332, 514.991, 525.747, 512.109, 509.011, 527.795, 654.023, 0.224
0.000000, -0.087266, 0.087266, 0.001523, 0.785398, 0.087266, 0.001523, 0.785398, 0.000000, -0.034907, 0.715585, -0.872665, 0.000000, 0.436332, 0.000000, 0.034907, 0.715585, -0.872665, 0.000000, 0.436332, 515.027, 525.801, 512.111, 503.941, 516.602, 652.194, 0.24
0.000000, -0.087266, 0.087266, 0.001523, 0.785398, 0.087266, 0.001523, 0.785398, 0.000000, -0.034907, 0.715585, -0.872665, 0.000000, 0.436332, 0.000000, 0.034907, 0.715585, -0.872665, 0.000000, 0.436332, 514.948, 525.812, 512.115, 500.606, 514.809, 650.2, 0.256
0.000000, -0.087266, 0.087266, 0.001523, 0.785398, 0.087266, 0.001523, 0.785398, 0.000000, -0.034907, 0.715585, -0.872665, 0.000000, 0.436332, 0.000000, 0.034907, 0.715585, -0.872665, 0.000000, 0.436332, 514.863, 525.867, 512.091, 500.205, 517.891, 648.912, 0.272
0.000000, -0.087266, 0.087266, 0.001523, 0.785398, 0.087266, 0.001523, 0.785398, 0.000000, -0.034907, 0.715585, -0.872665, 0.000000, 0.436332, 0.000000, 0.034907, 0.715585, -0.872665, 0.000000, 0.436332, 514.75, 525.967, 512.067, 499.344, 518.236, 647.25, 0.288
0.000000, -0.087266, 0.087266, 0.001523, 0.785398, 0.087266, 0.001523, 0.785398, 0.000000, -0.034907, 0.715585, -0.872665, 0.000000, 0.436332, 0.000000, 0.034907, 0.715585, -0.872665, 0.000000, 0.436332, 514.62, 526.064, 512.101, 498.68, 518.356, 646.023, 0.304
0.000000, -0.087266, 0.087266, 0.001523, 0.785398, 0.087266, 0.001523, 0.785398, 0.000000, -0.034907, 0.715585, -0.872665, 0.000000, 0.436332, 0.000000, 0.034907, 0.715585, -0.872665, 0.000000, 0.436332, 514.387, 526.176, 512.145, 496.392, 517.558, 644.382, 0.32
0.000000, -0.087266, 0.087266, 0.001523, 0.785398, 0.087266, 0.001523, 0.785398, 0.000000, -0.034907, 0.715585, -0.872665, 0.000000, 0.436332, 0.000000, 0.034907, 0.715585, -0.872665, 0.000000, 0.436332, 513.723, 525.122, 512.417, 501.998, 513.183, 644.446, 0.336
0.000000, -0.087266, 0.087266, 0.001523, 0.785398, 0.087266, 0.001523, 0.785398, 0.000000, -0.034907, 0.715585, -0.872665, 0.000000, 0.436332, 0.000000, 0.034907, 0.715585, -0.872665, 0.000000, 0.436332, 512.821, 521.696, 512.07, 511.795, 518.205, 661.661, 0.352
0.000000, -0.087266, 0.087266, 0.001523, 0.785398, 0.087266, 0.001523, 0.785398, 0.000000, -0.034907, 0.715585, -0.872665, 0.000000, 0.436332, 0.000000, 0.034907, 0.715585, -0.872665, 0.000000, 0.436332, 512.475, 520.65, 512.111, 493.936, 518.058, 641.194, 0.368
0.000000, -0.087266, 0.087266, 0.001523, 0.785398, 0.087266, 0.001523, 0.785398, 0.000000, -0.034907, 0.715585, -0.872665, 0.000000, 0.436332, 0.000000, 0.034907, 0.715585, -0.872665, 0.000000, 0.436332, 511.284, 519.748, 511.878, 466.15, 517.384, 640.752, 0.384
0.000000, -0.087266, 0.087266, 0.001523, 0.785398, 0.087266, 0.001523, 0.785398, 0.000000, -0.034907, 0.715585, -0.872665, 0.000000, 0.436332, 0.000000, 0.034907, 0.715585, -0.872665, 0.000000, 0.436332, 510.063, 518.864, 511.629, 468.446, 515.98, 635.594, 0.4
0.000000, -0.087266, 0.087266, 0.001523, 0.785398, 0.087266, 0.001523, 0.785398, 0.000000, -0.034907, 0.715585, -0.872665, 0.000000, 0.436332, 0.000000, 0.034907, 0.715585, -0.872665, 0.000000, 0.436332, 509.679, 518.175, 512.019, 445.482, 517.017, 632.337, 0.416
0.000000, -0.087266, 0.087266, 0.001523, 0.785398, 0.087266, 0.001523, 0.785398, 0.000000, -0.034907, 0.715585, -0.872665, 0.000000, 0.436332, 0.000000, 0.034907, 0.715585, -0.872665, 0.000000, 0.436332, 509.886, 517.053, 512.174, 465.749, 519.797, 632.257, 0.432
0.000000, -0.087266, 0.087266, 0.001523, 0.785398, 0.087266, 0.001523, 0.785398, 0.000000, -0.034907, 0.715585, -0.872665, 0.000000, 0.436332, 0.000000, 0.034907, 0.715585, -0.872665, 0.000000, 0.436332, 510.068, 516.029, 512.27, 468.849, 518.935, 634.145, 0.448
0.000000, -0.087266, 0.087266, 0.001523, 0.785398, 0.087266, 0.001523, 0.785398, 0.000000, -0.034907, 0.715585, -0.872665, 0.000000, 0.436332, 0.000000, 0.034907, 0.715585, -0.872665, 0.000000, 0.436332, 510.207, 515.106, 512.369, 468.812, 518.052, 634.087, 0.464
0.000000, -0.087266, 0.087266, 0.001523, 0.785398, 0.087266, 0.001523, 0.785398, 0.000000, -0.034907, 0.715585, -0.872665, 0.000000, 0.436332, 0.000000, 0.034907, 0.715585, -0.872665, 0.000000, 0.436332, 510.325, 514.261, 512.482, 469.211, 517.285, 634.069, 0.48
0.000000, -0.087266, 0.087266, 0.001523, 0.785398, 0.087266, 0.001523, 0.785398, 0.000000, -0.034907, 0.715585, -0.872665, 0.000000, 0.436332, 0.000000, 0.034907, 0.715585, -0.872665, 0.000000, 0.436332, 510.426, 513.491, 512.612, 469.942, 516.5, 634.116, 0.496
0.000000, -0.087266, 0.087266, 0.001523, 0.785398, 0.087266, 0.001523, 0.785398, 0.000000, -0.034907, 0.715585, -0.872665, 0.000000, 0.436332, 0.000000, 0.034907, 0.715585, -0.872665, 0.000000, 0.436332, 510.575, 512.771, 512.806, 471.664, 514.501, 634.076, 0.512
0.000000, -0.087266, 0.087266, 0.001523, 0.785398, 0.087266, 0.001523, 0.785398, 0.000000, -0.034907, 0.715585, -0.872665, 0.000000, 0.436332, 0.000000, 0.034907, 0.715585, -0.872665, 0.000000, 0.436332, 510.807, 512.274, 513.503, 471.522, 515.885, 634.79, 0.528
0.000000, -0.087266, 0.087266, 0.001523, 0.785398, 0.087266, 0.001523, 0.785398, 0.000000, -0.034907, 0.715585, -0.872665, 0.000000, 0.436332, 0.000000, 0.034907, 0.715585, -0.872665, 0.000000, 0.436332, 510.8, 511.952, 513.657, 473.545, 512.662, 634.91, 0.544
0.000000, -0.087266, 0.087266, 0.001523, 0.785398, 0.087266, 0.001523, 0.785398, 0.000000, -0.034907, 0.715585, -0.872665, 0.000000, 0.436332, 0.000000, 0.034907, 0.715585, -0.872665, 0.000000, 0.436332, 510.932, 511.712, 513.745, 475.286, 512.688, 635.525, 0.56
0.000000, -0.087266, 0.087266, 0.001523, 0.785398, 0.087266, 0.001523, 0.785398, 0.000000, -0.034907, 0.715585, -0.872665, 0.000000, 0.436332, 0.000000, 0.034907, 0.715585, -0.872665, 0.000000, 0.436332, 511.188, 511.342, 512.005, 479.342, 508.313, 636.051, 0.576
0.000000, -0.087266, 0.087266, 0.001523, 0.785398, 0.087266, 0.001523, 0.785398, 0.000000, -0.034907, 0.715585, -0.872665, 0.000000, 0.436332, 0.000000, 0.034907, 0.715585, -0.872665, 0.000000, 0.436332, 511.561, 511.219, 511.948, 478.274, 512.33, 636.684, 0.592
0.000000, -0.087266, 0.087266, 0.001523, 0.785398, 0.087266, 0.001523, 0.785398, 0.000000, -0.034907, 0.715585, -0.872665, 0.000000, 0.436332, 0.000000, 0.034907, 0.715585, -0.872665, 0.000000, 0.436332, 511.829, 511.148, 511.943, 479.565, 511.864, 636.683, 0.608
0.000000, -0.087266, 0.087266, 0.001523, 0.785398, 0.087266, 0.001523, 0.785398, 0.000000, -0.034907, 0.715585, -0.872665, 0.000000, 0.436332, 0.000000, 0.034907, 0.715585, -0.872665, 0.000000, 0.436332, 511.882, 511.145, 511.963, 480.996, 511.577, 636.883, 0.624
0.000000, -0.087266, 0.087266, 0.001523, 0.785398, 0.087266, 0.001523, 0.785398, 0.000000, -0.034907, 0.715585, -0.872665, 0.000000, 0.436332, 0.000000, 0.034907, 0.715585, -0.872665, 0.000000, 0.436332, 511.907, 511.2, 511.971, 482.277, 512.069, 637.141, 0.64
0.000000, -0.087266, 0.087266, 0.001523, 0.785398, 0.087266, 0.001523, 0.785398, 0.000000, -0.034907, 0.715585, -0.872665, 0.000000, 0.436332, 0.000000, 0.034907, 0.715585, -0.872665, 0.000000, 0.436332, 511.93, 511.271, 511.978, 482.808, 512.169, 636.956, 0.656
0.000000, -0.087266, 0.087266, 0.001523, 0.785398, 0.087266, 0.001523, 0.785398, 0.000000, -0.034907, 0.715585, -0.872665, 0.000000, 0.436332, 0.000000, 0.034907, 0.715585, -0.872665, 0.000000, 0.436332, 511.952, 511.351, 511.987, 483.072, 512.224, 636.916, 0.672
0.000000, -0.087266, 0.087266, 0.001523, 0.785398, 0.087266, 0.001523, 0.785398, 0.000000, -0.034907, 0.715585, -0.872665, 0.000000, 0.436332, 0.000000, 0.034907, 0.715585, -0.872665, 0.000000, 0.436332, 511.972, 511.437, 511.998, 483.234, 512.273, 636.9, 0.688
0.000000, -0.087266, 0.087266, 0.001523, 0.785398, 0.087266, 0.001523, 0.785398, 0.000000, -0.034907, 0.715585, -0.872665, 0.000000, 0.436332, 0.000000, 0.034907, 0.715585, -0.872665, 0.000000, 0.436332, 511.992, 511.527, 512.004, 483.328, 512.32, 636.886, 0.704
0.000000, -0.087266, 0.087266, 0.001523, 0.785398, 0.087266, 0.001523, 0.785398, 0.000000, -0.034907, 0.715585, -0.872665, 0.000000, 0.436332, 0.000000, 0.034907, 0.715585, -0.872665, 0.000000, 0.436332, 512.013, 511.617, 512.003, 483.355, 512.351, 636.865, 0.72
0.000000, -0.087266, 0.087266, 0.001523, 0.785398, 0.087266, 0.001523, 0.785398, 0.000000, -0.034907, 0.715585, -0.872665, 0.000000, 0.436332, 0.000000, 0.034907, 0.715585, -0.872665, 0.000000, 0.436332, 512.03, 511.706, 512.008, 483.325, 512.425, 636.831, 0.736
0.000000, -0.087266, 0.087266, 0.001523, 0.785398, 0.087266, 0.001523, 0.785398, 0.000000, -0.034907, 0.715585, -0.872665, 0.000000, 0.436332, 0.000000, 0.034907, 0.715585, -0.872665, 0.000000, 0.436332, 512.047, 511.791, 512.006, 483.261, 512.451, 636.8, 0.752
0.000000, -0.087266, 0.087266, 0.001523, 0.785398, 0.087266, 0.001523, 0.785398, 0.000000, -0.034907, 0.715585, -0.872665, 0.000000, 0.436332, 0.000000, 0.034907, 0.715585, -0.872665, 0.000000, 0.436332, 512.062, 511.871, 512.013, 483.134, 512.522, 636.755, 0.768
0.000000, -0.087266, 0.087266, 0.001523, 0.785398, 0.087266, 0.001523, 0.785398, 0.000000, -0.034907, 0.715585, -0.872665, 0.000000, 0.436332, 0.000000, 0.034907, 0.715585, -0.872665, 0.000000, 0.436332, 512.073, 511.94, 512.015, 482.926, 512.584, 636.709, 0.784
0.000000, -0.087266, 0.087266, 0.001523, 0.785398, 0.087266, 0.001523, 0.785398, 0.000000, -0.034907, 0.715585, -0.872665, 0.000000, 0.436332, 0.000000, 0.034907, 0.715585, -0.872665, 0.000000, 0.436332, 512.077, 511.995, 512.048, 482.591, 512.739, 636.629, 0.8
0.000000, -0.087266, 0.087266, 0.001523, 0.785398, 0.087266, 0.001523, 0.785398, 0.000000, -0.034907, 0.715585, -0.872665, 0.000000, 0.436332, 0.000000, 0.034907, 0.715585, -0.872665, 0.000000, 0.436332, 512.089, 512.037, 512.024, 482.386, 512.69, 636.588, 0.816
0.000000, -0.087266, 0.087266, 0.001523, 0.785398, 0.087266, 0.001523, 0.785398, 0.000000, -0.034907, 0.715585, -0.872665, 0.000000, 0.436332, 0.000000, 0.034907, 0.715585, -0.872665, 0.000000, 0.436332, 512.092, 512.067, 512.021, 482.101, 512.847, 636.49, 0.832
0.000000, -0.087266, 0.087266, 0.001523, 0.785398, 0.087266, 0.001523, 0.785398, 0.000000, -0.034907, 0.715585, -0.872665, 0.000000, 0.436332, 0.000000, 0.034907, 0.715585, -0.872665, 0.000000, 0.436332, 512.092, 512.087, 512.018, 481.866, 512.926, 636.42, 0.848
0.000000, -0.087266, 0.087266, 0.001523, 0.785398, 0.087266, 0.001523, 0.785398, 0.000000, -0.034907, 0.715585, -0.872665, 0.000000, 0.436332, 0.000000, 0.034907, 0.715585, -0.872665, 0.000000, 0.436332, 512.09, 512.099, 512.016, 481.664, 512.993, 636.362, 0.864
0.000000, -0.087266, 0.087266, 0.001523, 0.785398, 0.087266, 0.001523, 0.785398, 0.000000, -0.034907, 0.715585, -0.872665, 0.000000, 0.436332, 0.000000, 0.034907, 0.715585, -0.872665, 0.000000, 0.436332, 512.081, 512.103, 512.032, 481.481, 513.09, 636.303, 0.88
0.000000, -0.087266, 0.087266, 0.001523, 0.785398, 0.087266, 0.001523, 0.785398, 0.000000, -0.034907, 0.715585, -0.872665, 0.000000, 0.436332, 0.000000, 0.034907, 0.715585, -0.872665, 0.000000, 0.436332, 512.079, 512.102, 512.019, 481.379, 513.066, 636.279, 0.896
0.000000, -0.087266, 0.087266, 0.001523, 0.785398, 0.087266, 0.001523, 0.785398, 0.000000, -0.034907, 0.715585, -0.872665, 0.000000, 0.436332, 0.000000, 0.034907, 0.715585, -0.872665, 0.000000, 0.436332, 512.073, 512.096, 512.013, 481.267, 513.124, 636.245, 0.912
0.000000, -0.087266, 0.087266, 0.001523, 0.785398, 0.087266, 0.001523, 0.785398, 0.000000, -0.034907, 0.715585, -0.872665, 0.000000, 0.436332, 0.000000, 0.034907, 0.715585, -0.872665, 0.000000, 0.436332, 512.061, 512.087, 512.027, 481.171, 513.201, 636.211, 0.928
0.000000, -0.087266, 0.087266, 0.001523, 0.785398, 0.087266, 0.001523, 0.785398, 0.000000, -0.034907, 0.715585, -0.872665, 0.000000, 0.436332, 0.000000, 0.034907, 0.715585, -0.872665, 0.000000, 0.436332, 512.054, 512.077, 512.022, 481.145, 513.166, 636.208, 0.944
0.000000, -0.087266, 0.087266, 0.001523, 0.785398, 0.087266, 0.001523, 0.785398, 0.000000, -0.034907, 0.715585, -0.872665, 0.000000, 0.436332, 0.000000, 0.034907, 0.715585, -0.872665, 0.000000, 0.436332, 512.05, 512.065, 512.003, 481.129, 513.155, 636.205, 0.96
0.000000, -0.087266, 0.087266, 0.001523, 0.785398, 0.087266, 0.001523, 0.785398, 0.000000, -0.034907, 0.715585, -0.872665, 0.000000, 0.436332, 0.000000, 0.034907, 0.715585, -0.872665, 0.000000, 0.436332, 512.041, 512.053, 511.999, 481.101, 513.206, 636.189, 0.976
0.000000, -0.087266, 0.087266, 0.001523, 0.785398, 0.087266, 0.001523, 0.785398, 0.000000, -0.034907, 0.715585, -0.872665, 0.000000, 0.436332, 0.000000, 0.034907, 0.715585, -0.872665, 0.000000, 0.436332, 512.027, 512.042, 512.02, 481.077, 513.252, 636.182, 0.992
0.000000, -0.087266, 0.087266, 0.001523, 0.785398, 0.087266, 0.001523, 0.785398, 0.000000, -0.034907, 0.715585, -0.872665, 0.000000, 0.436332, 0.000000, 0.034907, 0.715585, -0.872665, 0.000000, 0.436332, 512.024, 512.032, 512.001, 481.132, 513.15, 636.205, 1.008
0.000000, -0.087266, 0.087266, 0.001523, 0.785398, 0.087266, 0.001523, 0.785398, 0.000000, -0.034907, 0.715585, -0.872665, 0.000000, 0.436332, 0.000000, 0.034907, 0.715585, -0.872665, 0.000000, 0.436332, 512.014, 512.022, 512.005, 481.128, 513.204, 636.196, 1.024
0.000000, -0.087266, 0.087266, 0.001523, 0.785398, 0.087266, 0.001523, 0.785398, 0.000000, -0.033231, 0.711396, -0.867080, 0.002094, 0.434238, 0.000000, 0.038587, 0.709594, -0.866223, 0.006919, 0.433114, 511.963, 511.805, 511.921, 481.072, 517.388, 641.556, 1.04
0.000000, -0.087266, 0.087266, 0.001523, 0.785398, 0.087266, 0.001523, 0.785398, 0.000000, -0.029880, 0.703019, -0.855910, 0.006283, 0.430049, 0.000000, 0.045949, 0.697611, -0.853338, 0.020758, 0.426677, 511.753, 511.506, 511.802, 480.986, 520.985, 645.866, 1.056
0.000000, -0.087266, 0.087266, 0.001523, 0.785398, 0.087266, 0.001523, 0.785398, 0.000000, -0.026529, 0.694641, -0.844740, 0.010472, 0.425860, 0.000000, 0.053311, 0.685628, -0.840454, 0.034597, 0.420240, 511.64, 511.25, 511.685, 480.88, 521.149, 643.635, 1.072
0.000000, -0.087266, 0.087266, 0.001523, 0.785398, 0.087266, 0.001523, 0.785398, 0.000000, -0.023178, 0.686263, -0.833570, 0.014661, 0.421671, 0.000000, 0.060673, 0.673645, -0.827570, 0.048436, 0.413803, 511.597, 511.016, 511.57, 480.778, 521.281, 642.115, 1.088
0.000000, -0.087266, 0.087266, 0.001523, 0.785398, 0.087266, 0.001523, 0.785398, 0.000000, -0.019827, 0.677886, -0.822399, 0.018850, 0.417482, 0.000000, 0.068034, 0.661662, -0.814685, 0.062275, 0.407367, 511.515, 510.797, 511.474, 480.72, 520.969, 640.853, 1.104
0.000000, -0.087266, 0.087266, 0.001523, 0.785398, 0.087266, 0.001523, 0.785398, 0.000000, -0.016476, 0.669508, -0.811229, 0.023038, 0.413294, 0.000000, 0.075396, 0.649679, -0.801801, 0.076113, 0.400930, 511.141, 510.515, 511.253, 478.866, 526.895, 640.689, 1.12
0.000000, -0.087266, 0.087266, 0.001523, 0.785398, 0.087266, 0.001523, 0.785398, 0.000000, -0.013125, 0.661131, -0.800059, 0.027227, 0.409105, 0.000000, 0.082758, 0.637696, -0.788916, 0.089952, 0.394493, 510.691, 510.235, 511.115, 479.076, 527.287, 639.342, 1.136
0.000000, -0.087266, 0.087266, 0.001523, 0.785398, 0.087266, 0.001523, 0.785398, 0.000000, -0.009774, 0.652753, -0.788889, 0.031416, 0.404916, 0.000000, 0.090120, 0.625713, -0.776032, 0.103791, 0.388056, 510.215, 509.977, 510.954, 479.494, 526.969, 638.097, 1.152
0.000000, -0.087266, 0.087266, 0.001523, 0.785398, 0.087266, 0.001523, 0.785398, 0.000000, -0.006423, 0.644376, -0.777719, 0.035605, 0.400727, 0.000000, 0.097481, 0.613730, -0.763147, 0.117630, 0.381620, 509.72, 509.705, 510.875, 479.317, 526.668, 637.005, 1.168
0.000000, -0.087266, 0.087266, 0.001523, 0.785398, 0.087266, 0.001523, 0.785398, 0.000000, -0.003072, 0.635998, -0.766549, 0.039793, 0.396539, 0.000000, 0.104843, 0.601747, -0.750263, 0.131469, 0.375183, 509.201, 509.499, 510.802, 480.554, 526.195, 636.822, 1.184
0.000000, -0.087266, 0.087266, 0.001523, 0.785398, 0.087266, 0.001523, 0.785398, 0.000000, 0.000279, 0.627620, -0.755379, 0.043982, 0.392350, 0.000000, 0.112205, 0.589764, -0.737379, 0.145308, 0.368746, 508.709, 509.326, 510.779, 481.339, 524.838, 636.579, 1.2
0.000000, -0.087266, 0.087266, 0.001523, 0.785398, 0.087266, 0.001523, 0.785398, 0.000000, 0.003630, 0.619243, -0.744209, 0.048171, 0.388161, 0.000000, 0.119567, 0.577781, -0.724494, 0.159146, 0.362310, 508.243, 509.174, 510.752, 481.887, 524.957, 636.152, 1.216
0.000000, -0.087266, 0.087266, 0.001523, 0.785398, 0.087266, 0.001523, 0.785398, 0.000000, 0.006981, 0.610865, -0.733039, 0.052360, 0.383972, 0.000000, 0.126928, 0.565798, -0.711610, 0.172985, 0.355873, 507.807, 509.096, 510.737, 483.595, 524.336, 636.032, 1.232
0.000000, -0.087266, 0.087266, 0.001523, 0.785398, 0.087266, 0.001523, 0.785398, 0.000000, 0.010332, 0.602488, -0.721868, 0.056549, 0.379783, 0.000000, 0.134290, 0.553815, -0.698725, 0.186824, 0.349436, 507.615, 509.196, 510.422, 486.436, 517.654, 643.399, 1.248
0.000000, -0.087266, 0.087266, 0.001523, 0.785398, 0.087266, 0.001523, 0.785398, 0.000000, 0.013683, 0.594110, -0.710698, 0.060737, 0.375595, 0.000000, 0.141652, 0.541832, -0.685841, 0.200663, 0.342999, 507.204, 509.365, 510.194, 487.771, 509.954, 632.042, 1.264
0.000000, -0.087266, 0.087266, 0.001523, 0.785398, 0.087266, 0.001523, 0.785398, 0.000000, 0.017034, 0.585732, -0.699528, 0.064926, 0.371406, 0.000000, 0.149013, 0.529849, -0.672957, 0.214502, 0.336563, 507.136, 509.484, 510.174, 487.696, 509.076, 634.041, 1.28
0.000000, -0.087266, 0.087266, 0.001523, 0.785398, 0.087266, 0.001523, 0.785398, 0.000000, 0.020385, 0.577355, -0.688358, 0.069115, 0.367217, 0.000000, 0.156375, 0.517866, -0.660072, 0.228340, 0.330126, 507.228, 509.787, 510.184, 491.698, 506.751, 634.919, 1.296
0.000000, -0.087266, 0.087266, 0.001523, 0.785398, 0.087266, 0.001523, 0.785398, 0.000000, 0.023736, 0.568977, -0.677188, 0.073304, 0.363028, 0.000000, 0.163737, 0.505883, -0.647188, 0.242179, 0.323689, 507.43, 509.958, 510.231, 488.692, 503.906, 635.476, 1.312
0.000000, -0.087266, 0.087266, 0.001523, 0.785398, 0.087266, 0.001523, 0.785398, 0.000000, 0.027088, 0.560600, -0.666018, 0.077493, 0.358839, 0.000000, 0.171099, 0.493900, -0.634303, 0.256018, 0.317252, 507.646, 510.106, 510.288, 489.834, 502.653, 636.197, 1.328
0.000000, -0.087266, 0.087266, 0.001523, 0.785398, 0.087266, 0.001523, 0.785398, 0.000000, 0.030439, 0.552222, -0.654848, 0.081681, 0.354651, 0.000000, 0.178460, 0.481917, -0.621419, 0.269857, 0.310816, 509.003, 510.262, 510.606, 489.269, 485.129, 639.204, 1.344
0.000000, -0.087266, 0.087266, 0.001523, 0.785398, 0.087266, 0.001523, 0.785398, 0.000000, 0.033790, 0.543845, -0.643678, 0.085870, 0.350462, 0.000000, 0.185822, 0.469934, -0.608534, 0.283696, 0.304379, 509.539, 510.375, 510.713, 489.228, 495.826, 634.369, 1.36
0.000000, -0.087266, 0.087266, 0.001523, 0.785398, 0.087266, 0.001523, 0.785398, 0.000000, 0.037141, 0.535467, -0.632508, 0.090059, 0.346273, 0.000000, 0.193184, 0.457951, -0.595650, 0.297535, 0.297942, 510.083, 510.602, 510.827, 488.172, 494.523, 636.365, 1.376
0.000000, -0.087266, 0.087266, 0.001523, 0.785398, 0.087266, 0.001523, 0.785398, 0.000000, 0.040492, 0.527089, -0.621337, 0.094248, 0.342084, 0.000000, 0.200546, 0.445968, -0.582766, 0.311373, 0.291505, 510.621, 510.875, 510.939, 487.572, 494.349, 635.973, 1.392
0.000000, -0.087266, 0.087266, 0.001523, 0.785398, 0.087266, 0.001523, 0.785398, 0.000000, 0.043843, 0.518712, -0.610167, 0.098436, 0.337896, 0.000000, 0.207907, 0.433985, -0.569881, 0.325212, 0.285069, 511.113, 511.154, 511.039, 488.046, 495.352, 636.606, 1.408
0.000000, -0.087266, 0.087266, 0.001523, 0.785398, 0.087266, 0.001523, 0.785398, 0.000000, 0.047194, 0.510334, -0.598997, 0.102625, 0.333707, 0.000000, 0.215269, 0.422002, -0.556997, 0.339051, 0.278632, 511.54, 511.109, 511.137, 488.607, 496.773, 637.378, 1.424
0.000000, -0.087266, 0.087266, 0.001523, 0.785398, 0.087266, 0.001523, 0.785398, 0.000000, 0.050545, 0.501957, -0.587827, 0.106814, 0.329518, 0.000000, 0.222631, 0.410019, -0.544112, 0.352890, 0.272195, 511.951, 511.323, 511.217, 488.237, 496.572, 636.091, 1.44
0.000000, -0.087266, 0.087266, 0.001523, 0.785398, 0.087266, 0.001523, 0.785398, 0.000000, 0.053896, 0.493579, -0.576657, 0.111003, 0.325329, 0.000000, 0.229993, 0.398036, -0.531228, 0.366729, 0.265758, 512.099, 509.985, 511.325, 492.93, 503.093, 642.589, 1.456
0.000000, -0.087266, 0.087266, 0.001523, 0.785398, 0.087266, 0.001523, 0.785398, 0.000000, 0.057247, 0.485201, -0.565487, 0.115192, 0.321140, 0.000000, 0.237354, 0.386053, -0.518344, 0.380567, 0.259322, 512.105, 508.274, 511.426, 494.724, 505.851, 641.822, 1.472
0.000000, -0.087266, 0.087266, 0.001523, 0.785398, 0.087266, 0.001523, 0.785398, 0.000000, 0.060598, 0.476824, -0.554317, 0.119380, 0.316952, 0.000000, 0.244716, 0.374070, -0.505459, 0.394406, 0.252885, 511.89, 508.802, 511.416, 477.275, 509.528, 624.364, 1.488
0.000000, -0.087266, 0.087266, 0.001523, 0.785398, 0.087266, 0.001523, 0.785398, 0.000000, 0.063949, 0.468446, -0.543147, 0.123569, 0.312763, 0.000000, 0.252078, 0.362087, -0.492575, 0.408245, 0.246448, 511.758, 508.972, 511.41, 479.518, 509.345, 636.256, 1.504
0.000000, -0.087266, 0.087266, 0.001523, 0.785398, 0.087266, 0.001523, 0.785398, 0.000000, 0.067300, 0.460069, -0.531977, 0.127758, 0.308574, 0.000000, 0.259439, 0.350104, -0.479690, 0.422084, 0.240012, 511.677, 509.135, 511.404, 481.115, 508.195, 637.475, 1.52
0.000000, -0.087266, 0.087266, 0.001523, 0.785398, 0.087266, 0.001523, 0.785398, 0.000000, 0.070651, 0.451691, -0.520806, 0.131947, 0.304385, 0.000000, 0.266801, 0.338121, -0.466806, 0.435923, 0.233575, 511.644, 509.333, 511.398, 482.533, 507.014, 637.705, 1.536
0.000000, -0.087266, 0.087266, 0.001523, 0.785398, 0.087266, 0.001523, 0.785398, 0.000000, 0.074002, 0.443314, -0.509636, 0.136135, 0.300197, 0.000000, 0.274163, 0.326138, -0.453921, 0.449762, 0.227138, 511.657, 509.573, 511.395, 483.83, 505.869, 637.838, 1.552
0.000000, -0.087266, 0.087266, 0.001523, 0.785398, 0.087266, 0.001523, 0.785398, 0.000000, 0.077353, 0.434936, -0.498466, 0.140324, 0.296008, 0.000000, 0.281525, 0.314155, -0.441037, 0.463600, 0.220701, 511.715, 509.847, 511.394, 484.59, 504.775, 637.946, 1.568
0.000000, -0.087266, 0.087266, 0.001523, 0.785398, 0.087266, 0.001523, 0.785398, 0.000000, 0.080704, 0.426558, -0.487296, 0.144513, 0.291819, 0.000000, 0.288886, 0.302172, -0.428153, 0.477439, 0.214265, 511.786, 509.932, 511.403, 487.703, 504.244, 637.063, 1.584
0.000000, -0.087266, 0.087266, 0.001523, 0.785398, 0.087266, 0.001523, 0.785398, 0.000000, 0.084055, 0.418181, -0.476126, 0.148702, 0.287630, 0.000000, 0.296248, 0.290189, -0.415268, 0.491278, 0.207828, 511.857, 509.845, 511.426, 489.313, 504.042, 636.193, 1.6
0.000000, -0.087266, 0.087266, 0.001523, 0.785398, 0.087266, 0.001523, 0.785398, 0.000000, 0.087406, 0.409803, -0.464956, 0.152891, 0.283441, 0.000000, 0.303610, 0.278206, -0.402384, 0.505117, 0.201391, 511.932, 509.79, 511.451, 490.257, 503.901, 636.322, 1.616
0.000000, -0.087266, 0.087266, 0.001523, 0.785398, 0.087266, 0.001523, 0.785398, 0.000000, 0.090757, 0.401426, -0.453786, 0.157079, 0.279253, 0.000000, 0.310972, 0.266223, -0.389499, 0.518956, 0.194954, 512.012, 509.758, 511.478, 490.758, 503.772, 636.493, 1.632
0.000000, -0.087266, 0.087266, 0.001523, 0.785398, 0.087266, 0.001523, 0.785398, 0.000000, 0.094108, 0.393048, -0.442616, 0.161268, 0.275064, 0.000000, 0.318333, 0.254240, -0.376615, 0.532794, 0.188518, 512.06, 509.83, 511.433, 497.5, 504.531, 636.254, 1.648
0.000000, -0.087266, 0.087266, 0.001523, 0.785398, 0.087266, 0.001523, 0.785398, 0.000000, 0.097459, 0.384670, -0.431446, 0.165457, 0.270875, 0.000000, 0.325695, 0.242257, -0.363731, 0.546633, 0.182081, 512.111, 510.116, 511.423, 493.97, 504.547, 637.605, 1.664
0.000000, -0.087266, 0.087266, 0.001523, 0.785398, 0.087266, 0.001523, 0.785398, 0.000000, 0.100810, 0.376293, -0.420275, 0.169646, 0.266686, 0.000000, 0.333057, 0.230274, -0.350846, 0.560472, 0.175644, 512.151, 510.434, 511.413, 494.453, 504.758, 638.078, 1.68
0.000000, -0.087266, 0.087266, 0.001523, 0.785398, 0.087266, 0.001523, 0.785398, 0.000000, 0.104161, 0.367915, -0.409105, 0.173835, 0.262497, 0.000000, 0.340419, 0.218291, -0.337962, 0.574311, 0.169207, 512.166, 510.541, 511.435, 494.026, 505.142, 637.706, 1.696
0.000000, -0.087266, 0.087266, 0.001523, 0.785398, 0.087266, 0.001523, 0.785398, 0.000000, 0.107512, 0.359538, -0.397935, 0.178023, 0.258309, 0.000000, 0.347780, 0.206308, -0.325077, 0.588150, 0.162771, 512.186, 510.63, 511.462, 493.873, 505.068, 637.471, 1.712
0.000000, -0.087266, 0.087266, 0.001523, 0.785398, 0.087266, 0.001523, 0.785398, 0.000000, 0.110863, 0.351160, -0.386765, 0.182212, 0.254120, 0.000000, 0.355142, 0.194325, -0.312193, 0.601988, 0.156334, 512.215, 510.711, 511.489, 493.673, 504.931, 637.435, 1.728
0.000000, -0.087266, 0.087266, 0.001523, 0.785398, 0.087266, 0.001523, 0.785398, 0.000000, 0.114214, 0.342783, -0.375595, 0.186401, 0.249931, 0.000000, 0.362504, 0.182342, -0.299308, 0.615827, 0.149897, 512.255, 510.802, 511.513, 493.755, 504.79, 637.46, 1.744
0.000000, -0.087266, 0.087266, 0.001523, 0.785398, 0.087266, 0.001523, 0.785398, 0.000000, 0.117565, 0.334405, -0.364425, 0.190590, 0.245742, 0.000000, 0.369866, 0.170359, -0.286424, 0.629666, 0.143461, 512.308, 510.929, 511.516, 494.349, 504.616, 637.5, 1.76
0.000000, -0.087266, 0.087266, 0.001523, 0.785398, 0.087266, 0.001523, 0.785398, 0.000000, 0.120916, 0.326027, -0.353255, 0.194778, 0.241554, 0.000000, 0.377227, 0.158376, -0.273540, 0.643505, 0.137024, 512.367, 511.083, 511.513, 494.865, 504.557, 637.601, 1.776
0.000000, -0.087266, 0.087266, 0.001523, 0.785398, 0.087266, 0.001523, 0.785398, 0.000000, 0.124267, 0.317650, -0.342085, 0.198967, 0.237365, 0.000000, 0.384589, 0.146393, -0.260655, 0.657344, 0.130587, 512.419, 511.241, 511.51, 495.084, 504.836, 637.805, 1.792
0.000000, -0.087266, 0.087266, 0.001523, 0.785398, 0.087266, 0.001523, 0.785398, 0.000000, 0.127619, 0.309272, -0.330915, 0.203156, 0.233176, 0.000000, 0.391951, 0.134410, -0.247771, 0.671183, 0.124150, 512.461, 511.409, 511.498, 495.28, 505.111, 637.848, 1.808
0.000000, -0.087266, 0.087266, 0.001523, 0.785398, 0.087266, 0.001523, 0.785398, 0.000000, 0.130970, 0.300895, -0.319744, 0.207345, 0.228987, 0.000000, 0.399312, 0.122427, -0.234886, 0.685021, 0.117714, 512.492, 511.585, 511.486, 495.474, 505.402, 637.839, 1.824
0.000000, -0.087266, 0.087266, 0.001523, 0.785398, 0.087266, 0.001523, 0.785398, 0.000000, 0.134321, 0.292517, -0.308574, 0.211534, 0.224798, 0.000000, 0.406674, 0.110444, -0.222002, 0.698860, 0.111277, 512.511, 511.771, 511.464, 495.672, 505.672, 637.815, 1.84
0.000000, -0.087266, 0.087266, 0.001523, 0.785398, 0.087266, 0.001523, 0.785398, 0.000000, 0.137672, 0.284139, -0.297404, 0.215722, 0.220610, 0.000000, 0.414036, 0.098461, -0.209118, 0.712699, 0.104840, 512.519, 511.967, 511.44, 495.867, 505.948, 637.777, 1.856
0.000000, -0.087266, 0.087266, 0.001523, 0.785398, 0.087266, 0.001523, 0.785398, 0.000000, 0.141023, 0.275762, -0.286234, 0.219911, 0.216421, 0.000000, 0.421398, 0.086478, -0.196233, 0.726538, 0.098403, 512.565, 512.206, 511.412, 496.589, 505.189, 637.405, 1.872
0.000000, -0.087266, 0.087266, 0.001523, 0.785398, 0.087266, 0.001523, 0.785398, 0.000000, 0.144374, 0.267384, -0.275064, 0.224100, 0.212232, 0.000000, 0.428759, 0.074495, -0.183349, 0.740377, 0.091967, 512.594, 512.45, 511.376, 496.765, 505.478, 637.761, 1.888
0.000000, -0.087266, 0.087266, 0.001523, 0.785398, 0.087266, 0.001523, 0.785398, 0.000000, 0.147725, 0.259007, -0.263894, 0.228289, 0.208043, 0.000000, 0.436121, 0.062512, -0.170464, 0.754215, 0.085530, 512.613, 512.704, 511.341, 496.932, 505.764, 637.761, 1.904
0.000000, -0.087266, 0.087266, 0.001523, 0.785398, 0.087266, 0.001523, 0.785398, 0.000000, 0.151076, 0.250629, -0.252724, 0.232478, 0.203854, 0.000000, 0.443483, 0.050529, -0.157580, 0.768054, 0.079093, 512.621, 512.971, 511.297, 497.096, 506.024, 637.696, 1.92
0.000000, -0.087266, 0.087266, 0.001523, 0.785398, 0.087266, 0.001523, 0.785398, 0.000000, 0.154427, 0.242252, -0.241554, 0.236666, 0.199666, 0.000000, 0.450845, 0.038546, -0.144695, 0.781893, 0.072656, 512.591, 513.128, 511.534, 475.504, 506.192, 636.246, 1.936
0.000000, -0.087266, 0.087266, 0.001523, 0.785398, 0.087266, 0.001523, 0.785398, 0.000000, 0.157778, 0.233874, -0.230384, 0.240855, 0.195477, 0.000000, 0.458206, 0.026563, -0.131811, 0.795732, 0.066220, 512.58, 513.236, 511.502, 487.662, 506.415, 636.932, 1.952
0.000000, -0.087266, 0.087266, 0.001523, 0.785398, 0.087266, 0.001523, 0.785398, 0.000000, 0.161129, 0.225496, -0.219213, 0.245044, 0.191288, 0.000000, 0.465568, 0.014580, -0.118927, 0.809571, 0.059783, 512.169, 513.32, 511.369, 487.94, 513.626, 634.762, 1.968
0.000000, -0.087266, 0.087266, 0.001523, 0.785398, 0.087266, 0.001523, 0.785398, 0.000000, 0.164480, 0.217119, -0.208043, 0.249233, 0.187099, 0.000000, 0.472930, 0.002597, -0.106042, 0.823410, 0.053346, 512.018, 513.409, 511.31, 487.652, 508.072, 636.401, 1.984
0.000000, -0.087266, 0.087266, 0.001523, 0.785398, 0.087266, 0.001523, 0.785398, 0.000000, 0.167831, 0.208741, -0.196873, 0.253421, 0.182911, 0.000000, 0.480292, -0.009386, -0.093158, 0.837248, 0.046909, 511.923, 513.491, 511.246, 487.642, 508.343, 636.566, 2
0.000000, -0.087266, 0.087266, 0.001523, 0.785398, 0.087266, 0.001523, 0.785398, 0.000000, 0.171182, 0.200364, -0.185703, 0.257610, 0.178722, 0.000000, 0.487653, -0.021369, -0.080273, 0.851087, 0.040473, 511.818, 513.564, 511.175, 487.674, 508.549, 636.522, 2.016
0.000000, -0.087266, 0.087266, 0.001523, 0.785398, 0.087266, 0.001523, 0.785398, 0.000000, 0.174533, 0.191986, -0.174533, 0.261799, 0.174533, 0.000000, 0.495015, -0.033352, -0.067389, 0.864926, 0.034036, 511.703, 513.63, 511.108, 487.702, 508.741, 636.462, 2.032
0.000000, -0.087266, 0.087266, 0.001523, 0.785398, 0.087266, 0.001523, 0.785398, 0.000000, 0.174533, 0.191986, -0.174533, 0.261799, 0.174533, 0.000000, 0.495019, -0.036974, -0.074906, 0.864937, 0.037930, 511.266, 513.681, 511.115, 485.767, 505.075, 635.409, 2.048
0.000000, -0.087266, 0.087266, 0.001523, 0.785398, 0.087266, 0.001523, 0.785398, 0.000000, 0.174533, 0.191986, -0.174533, 0.261799, 0.174533, 0.000000, 0.495024, -0.040597, -0.082423, 0.864948, 0.041825, 510.875, 513.087, 511.137, 494.568, 505.945, 638.939, 2.064
0.000000, -0.087266, 0.087266, 0.001523, 0.785398, 0.087266, 0.001523, 0.785398, 0.000000, 0.174533, 0.191986, -0.174533, 0.261799, 0.174533, 0.000000, 0.495028, -0.044219, -0.089939, 0.864960, 0.045719, 510.493, 512.987, 511.191, 486.281, 506.128, 635.976, 2.08
0.000000, -0.087266, 0.087266, 0.001523, 0.785398, 0.087266, 0.001523, 0.785398, 0.000000, 0.174533, 0.191986, -0.174533, 0.261799, 0.174533, 0.000000, 0.495032, -0.046679, -0.095419, 0.864969, 0.048739, 510.138, 512.961, 511.202, 485.847, 506.541, 635.938, 2.096
0.000000, -0.087266, 0.087266, 0.001523, 0.785398, 0.087266, 0.001523, 0.785398, 0.000000, 0.174533, 0.191986, -0.174533, 0.261799, 0.174533, 0.000000, 0.495036, -0.048973, -0.100607, 0.864979, 0.051633, 509.803, 512.95, 511.196, 485.94, 506.836, 636.082, 2.112
0.000000, -0.087266, 0.087266, 0.001523, 0.785398, 0.087266, 0.001523, 0.785398, 0.000000, 0.174533, 0.191986, -0.174533, 0.261799, 0.174533, 0.000000, 0.495040, -0.051267, -0.105795, 0.864989, 0.054527, 509.483, 512.941, 511.173, 486.105, 507.036, 636.194, 2.128
0.000000, -0.087266, 0.087266, 0.001523, 0.785398, 0.087266, 0.001523, 0.785398, 0.000000, 0.174533, 0.191986, -0.174533, 0.261799, 0.174533, 0.000000, 0.495043, -0.052992, -0.110057, 0.864997, 0.057065, 509.172, 512.943, 511.137, 486.328, 507.214, 636.267, 2.144
0.000000, -0.087266, 0.087266, 0.001523, 0.785398, 0.087266, 0.001523, 0.785398, 0.000000, 0.174533, 0.191986, -0.174533, 0.261799, 0.174533, 0.000000, 0.495047, -0.054527, -0.114011, 0.865006, 0.059483, 508.864, 512.942, 511.099, 486.581, 507.329, 636.287, 2.16
0.000000, -0.087266, 0.087266, 0.001523, 0.785398, 0.087266, 0.001523, 0.785398, 0.000000, 0.174533, 0.191986, -0.174533, 0.261799, 0.174533, 0.000000, 0.495050, -0.056062, -0.117964, 0.865015, 0.061901, 508.558, 512.933, 511.052, 486.813, 507.377, 636.276, 2.176
0.000000, -0.087266, 0.087266, 0.001523, 0.785398, 0.087266, 0.001523, 0.785398, 0.000000, 0.174533, 0.191986, -0.174533, 0.261799, 0.174533, 0.000000, 0.495053, -0.057291, -0.121451, 0.865023, 0.064159, 509.274, 512.957, 511.187, 486.735, 492.188, 641.003, 2.192
0.000000, -0.087266, 0.087266, 0.001523, 0.785398, 0.087266, 0.001523, 0.785398, 0.000000, 0.174533, 0.191986, -0.174533, 0.261799, 0.174533, 0.000000, 0.495056, -0.058336, -0.124656, 0.865030, 0.066320, 509.201, 512.952, 511.179, 487.155, 502.157, 637.549, 2.208
0.000000, -0.087266, 0.087266, 0.001523, 0.785398, 0.087266, 0.001523, 0.785398, 0.000000, 0.174533, 0.191986, -0.174533, 0.261799, 0.174533, 0.000000, 0.495059, -0.059381, -0.127862, 0.865037, 0.068481, 509.167, 512.939, 511.176, 487.356, 501.938, 637.211, 2.224
0.000000, -0.087266, 0.087266, 0.001523, 0.785398, 0.087266, 0.001523, 0.785398, 0.000000, 0.174533, 0.191986, -0.174533, 0.261799, 0.174533, 0.000000, 0.495061, -0.060267, -0.130844, 0.865045, 0.070577, 509.162, 512.931, 511.213, 487.513, 501.286, 637.151, 2.24
0.000000, -0.087266, 0.087266, 0.001523, 0.785398, 0.087266, 0.001523, 0.785398, 0.000000, 0.174533, 0.191986, -0.174533, 0.261799, 0.174533, 0.000000, 0.495064, -0.060994, -0.133601, 0.865052, 0.072607, 509.181, 512.914, 511.202, 487.639, 500.562, 637.15, 2.256
0.000000, -0.087266, 0.087266, 0.001523, 0.785398, 0.087266, 0.001523, 0.785398, 0.000000, 0.174533, 0.191986, -0.174533, 0.261799, 0.174533, 0.000000, 0.495067, -0.061721, -0.136359, 0.865059, 0.074636, 509.22, 512.897, 511.219, 487.697, 499.944, 637.15, 2.272
0.000000, -0.087266, 0.087266, 0.001523, 0.785398, 0.087266, 0.001523, 0.785398, 0.000000, 0.174533, 0.191986, -0.174533, 0.261799, 0.174533, 0.000000, 0.495070, -0.062380, -0.139031, 0.865067, 0.076650, 509.279, 512.879, 511.24, 487.745, 499.316, 637.152, 2.288
0.000000, -0.087266, 0.087266, 0.001523, 0.785398, 0.087266, 0.001523, 0.785398, 0.000000, 0.174533, 0.191986, -0.174533, 0.261799, 0.174533, 0.000000, 0.495073, -0.062923, -0.141561, 0.865074, 0.078637, 509.356, 512.861, 511.263, 487.774, 498.71, 637.152, 2.304
0.000000, -0.087266, 0.087266, 0.001523, 0.785398, 0.087266, 0.001523, 0.785398, 0.000000, 0.174533, 0.191986, -0.174533, 0.261799, 0.174533, 0.000000, 0.495076, -0.063466, -0.144091, 0.865081, 0.080623, 509.449, 512.843, 511.291, 487.784, 498.13, 637.148, 2.32
0.000000, -0.087266, 0.087266, 0.001523, 0.785398, 0.087266, 0.001523, 0.785398, 0.000000, 0.174533, 0.191986, -0.174533, 0.261799, 0.174533, 0.000000, 0.495079, -0.063992, -0.146610, 0.865088, 0.082616, 509.557, 512.825, 511.321, 487.774, 497.583, 637.143, 2.336
0.000000, -0.087266, 0.087266, 0.001523, 0.785398, 0.087266, 0.001523, 0.785398, 0.000000, 0.174533, 0.191986, -0.174533, 0.261799, 0.174533, 0.000000, 0.495082, -0.064466, -0.149096, 0.865095, 0.084630, 509.679, 512.808, 511.352, 487.754, 497.076, 637.137, 2.352
0.000000, -0.087266, 0.087266, 0.001523, 0.785398, 0.087266, 0.001523, 0.785398, 0.000000, 0.174533, 0.191986, -0.174533, 0.261799, 0.174533, 0.000000, 0.495084, -0.064939, -0.151583, 0.865103, 0.086643, 509.812, 512.792, 511.386, 487.723, 496.609, 637.128, 2.368
0.000000, -0.087266, 0.087266, 0.001523, 0.785398, 0.087266, 0.001523, 0.785398, 0.000000, 0.174533, 0.191986, -0.174533, 0.261799, 0.174533, 0.000000, 0.495087, -0.065416, -0.154085, 0.865110, 0.088668, 509.955, 512.776, 511.421, 487.684, 496.187, 637.119, 2.384
0.000000, -0.087266, 0.087266, 0.001523, 0.785398, 0.087266, 0.001523, 0.785398, 0.000000, 0.174533, 0.191986, -0.174533, 0.261799, 0.174533, 0.000000, 0.495091, -0.065919, -0.156689, 0.865119, 0.090769, 510.107, 512.762, 511.458, 487.636, 495.811, 637.107, 2.4
0.000000, -0.087266, 0.087266, 0.001523, 0.785398, 0.087266, 0.001523, 0.785398, 0.000000, 0.174533, 0.191986, -0.174533, 0.261799, 0.174533, 0.000000, 0.495094, -0.066423, -0.159294, 0.865127, 0.092871, 510.265, 512.749, 511.497, 487.585, 495.491, 637.096, 2.416
0.000000, -0.087266, 0.087266, 0.001523, 0.785398, 0.087266, 0.001523, 0.785398, 0.000000, 0.174533, 0.191986, -0.174533, 0.261799, 0.174533, 0.000000, 0.495097, -0.066926, -0.161899, 0.865136, 0.094972, 510.429, 512.738, 511.531, 487.534, 495.212, 637.084, 2.432
0.000000, -0.087266, 0.087266, 0.001523, 0.785398, 0.087266, 0.001523, 0.785398, 0.000000, 0.174533, 0.191986, -0.174533, 0.261799, 0.174533, 0.000000, 0.495101, -0.067550, -0.164766, 0.865146, 0.097215, 510.597, 512.726, 511.572, 487.471, 494.992, 637.068, 2.448
0.000000, -0.087266, 0.087266, 0.001523, 0.785398, 0.087266, 0.001523, 0.785398, 0.000000, 0.174533, 0.191986, -0.174533, 0.261799, 0.174533, 0.000000, 0.495105, -0.068174, -0.167633, 0.865155, 0.099458, 510.767, 512.715, 511.607, 487.427, 494.814, 637.061, 2.464
0.000000, -0.087266, 0.087266, 0.001523, 0.785398, 0.087266, 0.001523, 0.785398, 0.000000, 0.174533, 0.191986, -0.174533, 0.261799, 0.174533, 0.000000, 0.495109, -0.068798, -0.170500, 0.865165, 0.101701, 510.937, 512.703, 511.644, 487.435, 494.699, 637.066, 2.48
0.000000, -0.087266, 0.087266, 0.001523, 0.785398, 0.087266, 0.001523, 0.785398, 0.000000, 0.174533, 0.191986, -0.174533, 0.261799, 0.174533, 0.000000, 0.495113, -0.069597, -0.173705, 0.865176, 0.104107, 511.107, 512.683, 511.685, 487.492, 494.626, 637.082, 2.496
0.000000, -0.087266, 0.087266, 0.001523, 0.785398, 0.087266, 0.001523, 0.785398, 0.000000, 0.174533, 0.191986, -0.174533, 0.261799, 0.174533, 0.000000, 0.495117, -0.070420, -0.176959, 0.865188, 0.106537, 511.275, 512.66, 511.72, 487.513, 494.595, 637.091, 2.512
0.000000, -0.087266, 0.087266, 0.001523, 0.785398, 0.087266, 0.001523, 0.785398, 0.000000, 0.174533, 0.191986, -0.174533, 0.261799, 0.174533, 0.000000, 0.495122, -0.071244, -0.180213, 0.865200, 0.108967, 511.441, 512.637, 511.757, 487.519, 494.622, 637.089, 2.528
0.000000, -0.087266, 0.087266, 0.001523, 0.785398, 0.087266, 0.001523, 0.785398, 0.000000, 0.174533, 0.191986, -0.174533, 0.261799, 0.174533, 0.000000, 0.495127, -0.072268, -0.183835, 0.865214, 0.111565, 511.602, 512.606, 511.798, 487.588, 494.686, 637.103, 2.544
0.000000, -0.087266, 0.087266, 0.001523, 0.785398, 0.087266, 0.001523, 0.785398, 0.000000, 0.174533, 0.191986, -0.174533, 0.261799, 0.174533, 0.000000, 0.495133, -0.073360, -0.187580, 0.865228, 0.114219, 511.757, 512.571, 511.833, 487.63, 494.783, 637.114, 2.56
0.000000, -0.087266, 0.087266, 0.001523, 0.785398, 0.087266, 0.001523, 0.785398, 0.000000, 0.174533, 0.191986, -0.174533, 0.261799, 0.174533, 0.000000, 0.495138, -0.074451, -0.191325, 0.865242, 0.116873, 511.907, 512.538, 511.871, 487.65, 494.934, 637.112, 2.576
0.000000, -0.087266, 0.087266, 0.001523, 0.785398, 0.087266, 0.001523, 0.785398, 0.000000, 0.174533, 0.191986, -0.174533, 0.261799, 0.174533, 0.000000, 0.495144, -0.075743, -0.195427, 0.865258, 0.119683, 512.05, 512.495, 511.906, 487.753, 495.099, 637.132, 2.592
0.000000, -0.087266, 0.087266, 0.001523, 0.785398, 0.087266, 0.001523, 0.785398, 0.000000, 0.174533, 0.191986, -0.174533, 0.261799, 0.174533, 0.000000, 0.495151, -0.077157, -0.199745, 0.865275, 0.122588, 512.185, 512.449, 511.942, 487.83, 495.307, 637.147, 2.608
0.000000, -0.087266, 0.087266, 0.001523, 0.785398, 0.087266, 0.001523, 0.785398, 0.000000, 0.174533, 0.191986, -0.174533, 0.261799, 0.174533, 0.000000, 0.495158, -0.078570, -0.204062, 0.865292, 0.125492, 512.312, 512.405, 511.978, 487.89, 495.549, 637.153, 2.624
0.000000, -0.087266, 0.087266, 0.001523, 0.785398, 0.087266, 0.001523, 0.785398, 0.000000, 0.174533, 0.191986, -0.174533, 0.261799, 0.174533, 0.000000, 0.495166, -0.080165, -0.208695, 0.865312, 0.128530, 512.431, 512.352, 512.009, 488.031, 495.798, 637.177, 2.64
0.000000, -0.087266, 0.087266, 0.001523, 0.785398, 0.087266, 0.001523, 0.785398, 0.000000, 0.174533, 0.191986, -0.174533, 0.261799, 0.174533, 0.000000, 0.495174, -0.081942, -0.213643, 0.865333, 0.131701, 512.54, 512.294, 512.045, 488.174, 496.083, 637.203, 2.656
0.000000, -0.087266, 0.087266, 0.001523, 0.785398, 0.087266, 0.001523, 0.785398, 0.000000, 0.174533, 0.191986, -0.174533, 0.261799, 0.174533, 0.000000, 0.495182, -0.083719, -0.218591, 0.865354, 0.134872, 512.64, 512.237, 512.073, 488.303, 496.38, 637.222, 2.672
0.000000, -0.087266, 0.087266, 0.001523, 0.785398, 0.087266, 0.001523, 0.785398, 0.000000, 0.174533, 0.191986, -0.174533, 0.261799, 0.174533, 0.000000, 0.495191, -0.085642, -0.223790, 0.865377, 0.138146, 512.731, 512.174, 512.102, 488.492, 496.698, 637.25, 2.688
0.000000, -0.087266, 0.087266, 0.001523, 0.785398, 0.087266, 0.001523, 0.785398, 0.000000, 0.174533, 0.191986, -0.174533, 0.261799, 0.174533, 0.000000, 0.495201, -0.087812, -0.229404, 0.865402, 0.141591, 512.783, 512.13, 512.29, 479.099, 496.942, 635.097, 2.704
0.000000, -0.087266, 0.087266, 0.001523, 0.785398, 0.087266, 0.001523, 0.785398, 0.000000, 0.174533, 0.191986, -0.174533, 0.261799, 0.174533, 0.000000, 0.495211, -0.089981, -0.235019, 0.865428, 0.145037, 512.857, 512.052, 512.301, 484.643, 497.226, 636.545, 2.72
0.000000, -0.087266, 0.087266, 0.001523, 0.785398, 0.087266, 0.001523, 0.785398, 0.000000, 0.174533, 0.191986, -0.174533, 0.261799, 0.174533, 0.000000, 0.495221, -0.092253, -0.240805, 0.865455, 0.148551, 512.923, 511.971, 512.308, 484.81, 497.567, 636.643, 2.736
0.000000, -0.087266, 0.087266, 0.001523, 0.785398, 0.087266, 0.001523, 0.785398, 0.000000, 0.174533, 0.191986, -0.174533, 0.261799, 0.174533, 0.000000, 0.495233, -0.094834, -0.247104, 0.865486, 0.152269, 512.979, 511.877, 512.311, 484.903, 497.899, 636.681, 2.752
0.000000, -0.087266, 0.087266, 0.001523, 0.785398, 0.087266, 0.001523, 0.785398, 0.000000, 0.174533, 0.191986, -0.174533, 0.261799, 0.174533, 0.000000, 0.495245, -0.097415, -0.253403, 0.865517, 0.155988, 513.025, 511.786, 512.315, 484.98, 498.261, 636.703, 2.768
0.000000, -0.087266, 0.087266, 0.001523, 0.785398, 0.087266, 0.001523, 0.785398, 0.000000, 0.174533, 0.191986, -0.174533, 0.261799, 0.174533, 0.000000, 0.495258, -0.100048, -0.259788, 0.865549, 0.159740, 513.061, 511.695, 512.321, 485.125, 498.622, 636.728, 2.784
0.000000, -0.087266, 0.087266, 0.001523, 0.785398, 0.087266, 0.001523, 0.785398, 0.000000, 0.174533, 0.191986, -0.174533, 0.261799, 0.174533, 0.000000, 0.495272, -0.103049, -0.266776, 0.865585, 0.163726, 513.087, 511.59, 512.327, 485.351, 498.958, 636.776, 2.8
0.000000, -0.087266, 0.087266, 0.001523, 0.785398, 0.087266, 0.001523, 0.785398, 0.000000, 0.174533, 0.191986, -0.174533, 0.261799, 0.174533, 0.000000, 0.495287, -0.106051, -0.273763, 0.865622, 0.167712, 513.107, 511.755, 512.287, 483.941, 499.175, 636.169, 2.816
0.000000, -0.087266, 0.087266, 0.001523, 0.785398, 0.087266, 0.001523, 0.785398, 0.000000, 0.174533, 0.191986, -0.174533, 0.261799, 0.174533, 0.000000, 0.495301, -0.109052, -0.280751, 0.865659, 0.171698, 513.12, 511.807, 512.247, 486, 499.592, 636.752, 2.832
0.000000, -0.087266, 0.087266, 0.001523, 0.785398, 0.087266, 0.001523, 0.785398, 0.000000, 0.174533, 0.191986, -0.174533, 0.261799, 0.174533, 0.000000, 0.495318, -0.112478, -0.288419, 0.865703, 0.175941, 513.123, 511.826, 512.22, 486.381, 499.928, 636.833, 2.848
0.000000, -0.087266, 0.087266, 0.001523, 0.785398, 0.087266, 0.001523, 0.785398, 0.000000, 0.174533, 0.191986, -0.174533, 0.261799, 0.174533, 0.000000, 0.495335, -0.115904, -0.296088, 0.865746, 0.180183, 513.116, 511.833, 512.209, 486.598, 500.282, 636.883, 2.864
0.000000, -0.087266, 0.087266, 0.001523, 0.785398, 0.087266, 0.001523, 0.785398, 0.000000, 0.174533, 0.191986, -0.174533, 0.261799, 0.174533, 0.000000, 0.495352, -0.119331, -0.303756, 0.865790, 0.184426, 513.1, 511.829, 512.2, 486.753, 500.602, 636.914, 2.88
0.000000, -0.087266, 0.087266, 0.001523, 0.785398, 0.087266, 0.001523, 0.785398, 0.000000, 0.174533, 0.191986, -0.174533, 0.261799, 0.174533, 0.000000, 0.495371, -0.123127, -0.312010, 0.865840, 0.188883, 513.076, 511.81, 512.2, 486.841, 500.891, 636.929, 2.896
0.000000, -0.087266, 0.087266, 0.001523, 0.785398, 0.087266, 0.001523, 0.785398, 0.000000, 0.174533, 0.191986, -0.174533, 0.261799, 0.174533, 0.000000, 0.495391, -0.126976, -0.320347, 0.865891, 0.193370, 513.044, 511.785, 512.206, 486.881, 501.18, 636.95, 2.912
0.000000, -0.087266, 0.087266, 0.001523, 0.785398, 0.087266, 0.001523, 0.785398, 0.000000, 0.174533, 0.191986, -0.174533, 0.261799, 0.174533, 0.000000, 0.495411, -0.130825, -0.328684, 0.865942, 0.197858, 513.006, 511.756, 512.207, 486.902, 501.441, 636.965, 2.928
0.000000, -0.087266, 0.087266, 0.001523, 0.785398, 0.087266, 0.001523, 0.785398, 0.000000, 0.174533, 0.191986, -0.174533, 0.261799, 0.174533, 0.000000, 0.495434, -0.134987, -0.337509, 0.866000, 0.202520, 512.963, 511.717, 512.214, 486.884, 501.675, 636.968, 2.944
0.000000, -0.087266, 0.087266, 0.001523, 0.785398, 0.087266, 0.001523, 0.785398, 0.000000, 0.174533, 0.191986, -0.174533, 0.261799, 0.174533, 0.000000, 0.495457, -0.139255, -0.346496, 0.866060, 0.207241, 512.915, 511.675, 512.222, 486.849, 501.902, 636.979, 2.96
0.000000, -0.087266, 0.087266, 0.001523, 0.785398, 0.087266, 0.001523, 0.785398, 0.000000, 0.174533, 0.191986, -0.174533, 0.261799, 0.174533, 0.000000, 0.495480, -0.143522, -0.355484, 0.866120, 0.211961, 512.862, 511.63, 512.223, 486.817, 502.103, 636.989, 2.976
0.000000, -0.087266, 0.087266, 0.001523, 0.785398, 0.087266, 0.001523, 0.785398, 0.000000, 0.174533, 0.191986, -0.174533, 0.261799, 0.174533, 0.000000, 0.495546, -0.137453, -0.373034, 0.866288, 0.235580, 512.799, 511.666, 512.192, 486.964, 502.5, 637.056, 2.992
0.000000, -0.087266, 0.087266, 0.001523, 0.785398, 0.087266, 0.001523, 0.785398, 0.000000, 0.174533, 0.191986, -0.174533, 0.261799, 0.174533, 0.000000, 0.495574, 0.062356, 0.177391, 0.866360, 0.246504, 512.701, 511.977, 512.105, 487.559, 503.035, 637.375, 3.008
0.000000, -0.087266, 0.087266, 0.001523, 0.785398, 0.087266, 0.001523, 0.785398, 0.000000, 0.174533, 0.191986, -0.174533, 0.261799, 0.174533, 0.000000, 0.495484, 0.128533, 0.351425, 0.866129, 0.222890, 512.546, 513.65, 511.768, 486.952, 504.426, 636.458, 3.024
0.000000, -0.087266, 0.087266, 0.001523, 0.785398, 0.087266, 0.001523, 0.785398, 0.000000, 0.174533, 0.191986, -0.174533, 0.261799, 0.174533, 0.000000, 0.495385, 0.129005, 0.318595, 0.865875, 0.189590, 512.332, 516.48, 509.723, 462.036, 504.766, 628.626, 3.04
0.000000, -0.087266, 0.087266, 0.001523, 0.785398, 0.087266, 0.001523, 0.785398, 0.000000, 0.174533, 0.191986, -0.174533, 0.261799, 0.174533, 0.000000, 0.495311, 0.136955, 0.290959, 0.865687, 0.154004, 512.311, 517.575, 508.191, 487.258, 504.009, 646.314, 3.056
0.000000, -0.087266, 0.087266, 0.001523, 0.785398, 0.087266, 0.001523, 0.785398, 0.000000, 0.174533, 0.191986, -0.174533, 0.261799, 0.174533, 0.000000, 0.495262, 0.149499, 0.265426, 0.865560, 0.115926, 513.519, 514.914, 507.37, 516.336, 505.871, 630.29, 3.072
0.000000, -0.087266, 0.087266, 0.001523, 0.785398, 0.087266, 0.001523, 0.785398, 0.000000, 0.174533, 0.191986, -0.174533, 0.261799, 0.174533, 0.000000, 0.495235, 0.163577, 0.238445, 0.865493, 0.074867, 513.265, 513.176, 507.372, 509.402, 499.539, 640.647, 3.088
0.000000, -0.087266, 0.087266, 0.001523, 0.785398, 0.087266, 0.001523, 0.785398, 0.000000, 0.174533, 0.191986, -0.174533, 0.261799, 0.174533, 0.000000, 0.495229, 0.176184, 0.207091, 0.865476, 0.032672, 513.797, 512.116, 507.49, 505.496, 502.76, 637.014, 3.104
0.000000, -0.087266, 0.087266, 0.001523, 0.785398, 0.087266, 0.001523, 0.785398, 0.000000, 0.174533, 0.191986, -0.174533, 0.261799, 0.174533, 0.000000, 0.495242, 0.184947, 0.169291, 0.865507, 0.015655, 513.522, 512.719, 510.867, 462.939, 504.613, 637.001, 3.12
0.000000, -0.087266, 0.087266, 0.001523, 0.785398, 0.087266, 0.001523, 0.785398, 0.000000, 0.174533, 0.191986, -0.174533, 0.261799, 0.174533, 0.000000, 0.495270, 0.403611, 0.096069, 0.865597, 0.064100, 513.307, 512.39, 512.206, 477.126, 501.406, 637.476, 3.136
0.000000, -0.087266, 0.087266, 0.001523, 0.785398, 0.087266, 0.001523, 0.785398, 0.000000, 0.171407, 0.199801, -0.184953, 0.257892, 0.178440, 0.000000, 0.488426, 0.991244, -0.028231, 0.852791, 0.103004, 513.107, 512.649, 512.224, 480.675, 495.959, 636.887, 3.152
0.000000, -0.087266, 0.087266, 0.001523, 0.785398, 0.087266, 0.001523, 0.785398, 0.000000, 0.161404, 0.224809, -0.218296, 0.245388, 0.190944, 0.000000, 0.466438, 0.977879, -0.069174, 0.811443, 0.119166, 512.221, 513.46, 512.317, 476.324, 485.382, 637.25, 3.168
0.000000, -0.087266, 0.087266, 0.001523, 0.785398, 0.087266, 0.001523, 0.785398, 0.000000, 0.151401, 0.249816, -0.251640, 0.232884, 0.203448, 0.000000, 0.444449, 0.964514, -0.110116, 0.770096, 0.135327, 511.739, 514.171, 512.427, 478.038, 484.364, 635.453, 3.184
0.000000, -0.087266, 0.087266, 0.001523, 0.785398, 0.087266, 0.001523, 0.785398, 0.000000, 0.141398, 0.274824, -0.284984, 0.220380, 0.215952, 0.000000, 0.422460, 0.951148, -0.151058, 0.728749, 0.151488, 511.483, 514.81, 512.553, 479.88, 484.25, 635.379, 3.2
0.000000, -0.087266, 0.087266, 0.001523, 0.785398, 0.087266, 0.001523, 0.785398, 0.000000, 0.131395, 0.299832, -0.318327, 0.207876, 0.228456, 0.000000, 0.400471, 0.937783, -0.192000, 0.687401, 0.167650, 510.714, 515.231, 513.206, 480.963, 483.573, 636.248, 3.216
0.000000, -0.087266, 0.087266, 0.001523, 0.785398, 0.087266, 0.001523, 0.785398, 0.000000, 0.121392, 0.324839, -0.351671, 0.195372, 0.240960, 0.000000, 0.378482, 0.924418, -0.232943, 0.646054, 0.183811, 509.863, 515.643, 513.911, 481.015, 483.565, 635.223, 3.232
0.000000, -0.087266, 0.087266, 0.001523, 0.785398, 0.087266, 0.001523, 0.785398, 0.000000, 0.111389, 0.349847, -0.385015, 0.182869, 0.253463, 0.000000, 0.356493, 0.911053, -0.273885, 0.604706, 0.199972, 509.748, 516.08, 514.764, 479.59, 486.724, 631.966, 3.248
0.000000, -0.087266, 0.087266, 0.001523, 0.785398, 0.087266, 0.001523, 0.785398, 0.000000, 0.101385, 0.374855, -0.418358, 0.170365, 0.265967, 0.000000, 0.334505, 0.897687, -0.314827, 0.563359, 0.216134, 509.438, 516.233, 515.296, 477.282, 485.648, 633.492, 3.264
0.000000, -0.087266, 0.087266, 0.001523, 0.785398, 0.087266, 0.001523, 0.785398, 0.000000, 0.091382, 0.399863, -0.451702, 0.157861, 0.278471, 0.000000, 0.312516, 0.884322, -0.355769, 0.522011, 0.232295, 509.516, 512.411, 517.743, 503.244, 495.678, 644.729, 3.28
0.000000, -0.087266, 0.087266, 0.001523, 0.785398, 0.087266, 0.001523, 0.785398, 0.000000, 0.081379, 0.424870, -0.485045, 0.145357, 0.290975, 0.000000, 0.290527, 0.870957, -0.396712, 0.480664, 0.248456, 509.587, 509.886, 520.058, 493.021, 498.022, 636.493, 3.296
0.000000, -0.087266, 0.087266, 0.001523, 0.785398, 0.087266, 0.001523, 0.785398, 0.000000, 0.071376, 0.449878, -0.518389, 0.132853, 0.303479, 0.000000, 0.268538, 0.857591, -0.437654, 0.439317, 0.264618, 509.539, 510.733, 522.524, 465.319, 499.468, 606.16, 3.312
0.000000, -0.087266, 0.087266, 0.001523, 0.785398, 0.087266, 0.001523, 0.785398, 0.000000, 0.061373, 0.474886, -0.551733, 0.120349, 0.315983, 0.000000, 0.246549, 0.844226, -0.478596, 0.397969, 0.280779, 509.637, 511.286, 522.143, 469.722, 492.584, 622.66, 3.328
0.000000, -0.087266, 0.087266, 0.001523, 0.785398, 0.087266, 0.001523, 0.785398, 0.000000, 0.051370, 0.499893, -0.585076, 0.107846, 0.328486, 0.000000, 0.224560, 0.830861, -0.519538, 0.356622, 0.296940, 510.022, 513.478, 521.189, 465.67, 490.053, 638.059, 3.344
0.000000, -0.087266, 0.087266, 0.001523, 0.785398, 0.087266, 0.001523, 0.785398, 0.000000, 0.041367, 0.524901, -0.618420, 0.095342, 0.340990, 0.000000, 0.202572, 0.817495, -0.560480, 0.315274, 0.313102, 510.314, 515.524, 519.976, 473.656, 488.343, 626.202, 3.36
0.000000, -0.087266, 0.087266, 0.001523, 0.785398, 0.087266, 0.001523, 0.785398, 0.000000, 0.031364, 0.549909, -0.651764, 0.082838, 0.353494, 0.000000, 0.180583, 0.804130, -0.601423, 0.273927, 0.329263, 510.606, 516.147, 518.628, 479.668, 487.673, 626.435, 3.376
0.000000, -0.087266, 0.087266, 0.001523, 0.785398, 0.087266, 0.001523, 0.785398, 0.000000, 0.021361, 0.574917, -0.685107, 0.070334, 0.365998, 0.000000, 0.158594, 0.790765, -0.642365, 0.232579, 0.345424, 510.886, 516.105, 517.215, 482.056, 486.794, 627.387, 3.392
0.000000, -0.087266, 0.087266, 0.001523, 0.785398, 0.087266, 0.001523, 0.785398, 0.000000, 0.011358, 0.599924, -0.718451, 0.057830, 0.378502, 0.000000, 0.136605, 0.777400, -0.683307, 0.191232, 0.361586, 511.211, 516.195, 515.33, 480.703, 485.916, 626.104, 3.408
0.000000, -0.087266, 0.087266, 0.001523, 0.785398, 0.087266, 0.001523, 0.785398, 0.000000, 0.001355, 0.624932, -0.751794, 0.045326, 0.391006, 0.000000, 0.114616, 0.764034, -0.724249, 0.149884, 0.377747, 511.966, 516.579, 514.766, 478.06, 487.82, 624.619, 3.424
0.000000, -0.087266, 0.087266, 0.001523, 0.785398, 0.087266, 0.001523, 0.785398, 0.000000, -0.008649, 0.649940, -0.785138, 0.032823, 0.403509, 0.000000, 0.092627, 0.750669, -0.765192, 0.108537, 0.393908, 512.853, 516.975, 514.38, 478.135, 488.652, 624.01, 3.44
0.000000, -0.087266, 0.087266, 0.001523, 0.785398, 0.087266, 0.001523, 0.785398, 0.000000, -0.018652, 0.674947, -0.818482, 0.020319, 0.416013, 0.000000, 0.070638, 0.737304, -0.806134, 0.067190, 0.410070, 513.753, 517.398, 513.894, 476.641, 489.825, 624.316, 3.456
0.000000, -0.087266, 0.087266, 0.001523, 0.785398, 0.087266, 0.001523, 0.785398, 0.000000, -0.028655, 0.699955, -0.851825, 0.007815, 0.428517, 0.000000, 0.048650, 0.723938, -0.847076, 0.025842, 0.426231, 514.204, 516.911, 513.496, 475.142, 499.764, 629.493, 3.472
0.000000, -0.087266, 0.087266, 0.001523, 0.785398, 0.087266, 0.001523, 0.785398, 0.000000, -0.034907, 0.715585, -0.872665, 0.000000, 0.436332, 0.000000, 0.034907, 0.715585, -0.872665, 0.000000, 0.436332, 514.899, 515.289, 513.934, 486.061, 498.325, 632.067, 3.488
0.000000, -0.087266, 0.087266, 0.001523, 0.785398, 0.087266, 0.001523, 0.785398, 0.000000, -0.034907, 0.715585, -0.872665, 0.000000, 0.436332, 0.000000, 0.034907, 0.715585, -0.872665, 0.000000, 0.436332, 514.666, 513.841, 514.138, 481.01, 508.349, 647.531, 3.504
0.000000, -0.087266, 0.087266, 0.001523, 0.785398, 0.087266, 0.001523, 0.785398, 0.000000, -0.034907, 0.715585, -0.872665, 0.000000, 0.436332, 0.000000, 0.034907, 0.715585, -0.872665, 0.000000, 0.436332, 515.362, 513.335, 514.249, 479.51, 506.984, 636.606, 3.52
0.000000, -0.087266, 0.087266, 0.001523, 0.785398, 0.087266, 0.001523, 0.785398, 0.000000, -0.034907, 0.715585, -0.872665, 0.000000, 0.436332, 0.000000, 0.034907, 0.715585, -0.872665, 0.000000, 0.436332, 515.516, 513.418, 514.385, 476.301, 499.421, 635.039, 3.536
0.000000, -0.087266, 0.087266, 0.001523, 0.785398, 0.087266, 0.001523, 0.785398, 0.000000, -0.034907, 0.715585, -0.872665, 0.000000, 0.436332, 0.000000, 0.034907, 0.715585, -0.872665, 0.000000, 0.436332, 516.664, 513.882, 514.614, 475.514, 501.49, 634.741, 3.552
0.000000, -0.087266, 0.087266, 0.001523, 0.785398, 0.087266, 0.001523, 0.785398, 0.000000, -0.034907, 0.715585, -0.872665, 0.000000, 0.436332, 0.000000, 0.034907, 0.715585, -0.872665, 0.000000, 0.436332, 517.62, 514.341, 514.779, 475.979, 500.916, 636.101, 3.568
0.000000, -0.087266, 0.087266, 0.001523, 0.785398, 0.087266, 0.001523, 0.785398, 0.000000, -0.034907, 0.715585, -0.872665, 0.000000, 0.436332, 0.000000, 0.034907, 0.715585, -0.872665, 0.000000, 0.436332, 518.562, 514.805, 514.969, 476.257, 500.121, 635.798, 3.584
0.000000, -0.087266, 0.087266, 0.001523, 0.785398, 0.087266, 0.001523, 0.785398, 0.000000, -0.034907, 0.715585, -0.872665, 0.000000, 0.436332, 0.000000, 0.034907, 0.715585, -0.872665, 0.000000, 0.436332, 519.742, 512.161, 515.116, 492.563, 501.215, 663.701, 3.6
0.000000, -0.087266, 0.087266, 0.001523, 0.785398, 0.087266, 0.001523, 0.785398, 0.000000, -0.034907, 0.715585, -0.872665, 0.000000, 0.436332, 0.000000, 0.034907, 0.715585, -0.872665, 0.000000, 0.436332, 520.802, 510.956, 515.282, 487.031, 502.266, 642.457, 3.616
0.000000, -0.087266, 0.087266, 0.001523, 0.785398, 0.087266, 0.001523, 0.785398, 0.000000, -0.034907, 0.715585, -0.872665, 0.000000, 0.436332, 0.000000, 0.034907, 0.715585, -0.872665, 0.000000, 0.436332, 522.094, 510.604, 515.168, 482.013, 509.801, 644.225, 3.632
0.000000, -0.087266, 0.087266, 0.001523, 0.785398, 0.087266, 0.001523, 0.785398, 0.000000, -0.034907, 0.715585, -0.872665, 0.000000, 0.436332, 0.000000, 0.034907, 0.715585, -0.872665, 0.000000, 0.436332, 522.257, 510.981, 515.025, 484.278, 512.876, 647.807, 3.648
0.000000, -0.087266, 0.087266, 0.001523, 0.785398, 0.087266, 0.001523, 0.785398, 0.000000, -0.034907, 0.715585, -0.872665, 0.000000, 0.436332, 0.000000, 0.034907, 0.715585, -0.872665, 0.000000, 0.436332, 520.657, 510.683, 514.6, 477.095, 523.716, 660.323, 3.664
0.000000, -0.087266, 0.087266, 0.001523, 0.785398, 0.087266, 0.001523, 0.785398, 0.000000, -0.034907, 0.715585, -0.872665, 0.000000, 0.436332, 0.000000, 0.034907, 0.715585, -0.872665, 0.000000, 0.436332, 520.106, 510.183, 514.755, 485.783, 528.735, 636.672, 3.68
0.000000, -0.087266, 0.087266, 0.001523, 0.785398, 0.087266, 0.001523, 0.785398, 0.000000, -0.034907, 0.715585, -0.872665, 0.000000, 0.436332, 0.000000, 0.034907, 0.715585, -0.872665, 0.000000, 0.436332, 519.681, 508.97, 514.764, 489.962, 527.748, 643.095, 3.696
0.000000, -0.087266, 0.087266, 0.001523, 0.785398, 0.087266, 0.001523, 0.785398, 0.000000, -0.034907, 0.715585, -0.872665, 0.000000, 0.436332, 0.000000, 0.034907, 0.715585, -0.872665, 0.000000, 0.436332, 519.26, 509.225, 514.499, 479.284, 528.424, 637.384, 3.712
0.000000, -0.087266, 0.087266, 0.001523, 0.785398, 0.087266, 0.001523, 0.785398, 0.000000, -0.034907, 0.715585, -0.872665, 0.000000, 0.436332, 0.000000, 0.034907, 0.715585, -0.872665, 0.000000, 0.436332, 518.749, 509.442, 514.152, 482.697, 534.366, 643.53, 3.728
0.000000, -0.087266, 0.087266, 0.001523, 0.785398, 0.087266, 0.001523, 0.785398, 0.000000, -0.034907, 0.715585, -0.872665, 0.000000, 0.436332, 0.000000, 0.034907, 0.715585, -0.872665, 0.000000, 0.436332, 517.332, 510.139, 514.028, 479.239, 530.108, 630.928, 3.744
0.000000, -0.087266, 0.087266, 0.001523, 0.785398, 0.087266, 0.001523, 0.785398, 0.000000, -0.034907, 0.715585, -0.872665, 0.000000, 0.436332, 0.000000, 0.034907, 0.715585, -0.872665, 0.000000, 0.436332, 516.306, 510.702, 513.708, 481.682, 533.946, 634.327, 3.76
0.000000, -0.087266, 0.087266, 0.001523, 0.785398, 0.087266, 0.001523, 0.785398, 0.000000, -0.034907, 0.715585, -0.872665, 0.000000, 0.436332, 0.000000, 0.034907, 0.715585, -0.872665, 0.000000, 0.436332, 515.268, 511.053, 513.421, 482.847, 532.927, 633.368, 3.776
0.000000, -0.087266, 0.087266, 0.001523, 0.785398, 0.087266, 0.001523, 0.785398, 0.000000, -0.034907, 0.715585, -0.872665, 0.000000, 0.436332, 0.000000, 0.034907, 0.715585, -0.872665, 0.000000, 0.436332, 515.996, 511.247, 513.035, 484.077, 522.009, 639.93, 3.792
0.000000, -0.087266, 0.087266, 0.001523, 0.785398, 0.087266, 0.001523, 0.785398, 0.000000, -0.034907, 0.715585, -0.872665, 0.000000, 0.436332, 0.000000, 0.034907, 0.715585, -0.872665, 0.000000, 0.436332, 515.558, 511.511, 512.597, 479.451, 530.994, 639.187, 3.808
0.000000, -0.087266, 0.087266, 0.001523, 0.785398, 0.087266, 0.001523, 0.785398, 0.000000, -0.034907, 0.715585, -0.872665, 0.000000, 0.436332, 0.000000, 0.034907, 0.715585, -0.872665, 0.000000, 0.436332, 514.549, 511.765, 511.946, 487.131, 532.29, 632.787, 3.824
0.000000, -0.087266, 0.087266, 0.001523, 0.785398, 0.087266, 0.001523, 0.785398, 0.000000, -0.034907, 0.715585, -0.872665, 0.000000, 0.436332, 0.000000, 0.034907, 0.715585, -0.872665, 0.000000, 0.436332, 513.555, 512.14, 511.366, 482.804, 529.824, 632.83, 3.84
0.000000, -0.087266, 0.087266, 0.001523, 0.785398, 0.087266, 0.001523, 0.785398, 0.000000, -0.034907, 0.715585, -0.872665, 0.000000, 0.436332, 0.000000, 0.034907, 0.715585, -0.872665, 0.000000, 0.436332, 512.565, 512.389, 510.845, 483.951, 530.83, 632.039, 3.856
0.000000, -0.087266, 0.087266, 0.001523, 0.785398, 0.087266, 0.001523, 0.785398, 0.000000, -0.034907, 0.715585, -0.872665, 0.000000, 0.436332, 0.000000, 0.034907, 0.715585, -0.872665, 0.000000, 0.436332, 511.619, 512.793, 512.652, 478.514, 532.904, 632.469, 3.872
0.000000, -0.087266, 0.087266, 0.001523, 0.785398, 0.087266, 0.001523, 0.785398, 0.000000, -0.034907, 0.715585, -0.872665, 0.000000, 0.436332, 0.000000, 0.034907, 0.715585, -0.872665, 0.000000, 0.436332, 510.637, 513.059, 512.393, 483.388, 530.219, 632.019, 3.888
0.000000, -0.087266, 0.087266, 0.001523, 0.785398, 0.087266, 0.001523, 0.785398, 0.000000, -0.034907, 0.715585, -0.872665, 0.000000, 0.436332, 0.000000, 0.034907, 0.715585, -0.872665, 0.000000, 0.436332, 510.699, 513.126, 512.111, 480.572, 538.967, 636.498, 3.904
0.000000, -0.087266, 0.087266, 0.001523, 0.785398, 0.087266, 0.001523, 0.785398, 0.000000, -0.034907, 0.715585, -0.872665, 0.000000, 0.436332, 0.000000, 0.034907, 0.715585, -0.872665, 0.000000, 0.436332, 510.651, 513.273, 511.909, 481.804, 535.225, 634.392, 3.92
0.000000, -0.087266, 0.087266, 0.001523, 0.785398, 0.087266, 0.001523, 0.785398, 0.000000, -0.034907, 0.715585, -0.872665, 0.000000, 0.436332, 0.000000, 0.034907, 0.715585, -0.872665, 0.000000, 0.436332, 510.641, 513.413, 511.673, 481.773, 533.377, 634.213, 3.936
0.000000, -0.087266, 0.087266, 0.001523, 0.785398, 0.087266, 0.001523, 0.785398, 0.000000, -0.034907, 0.715585, -0.872665, 0.000000, 0.436332, 0.000000, 0.034907, 0.715585, -0.872665, 0.000000, 0.436332, 510.363, 513.565, 511.469, 481.649, 527.778, 633.645, 3.952
0.000000, -0.087266, 0.087266, 0.001523, 0.785398, 0.087266, 0.001523, 0.785398, 0.000000, -0.034907, 0.715585, -0.872665, 0.000000, 0.436332, 0.000000, 0.034907, 0.715585, -0.872665, 0.000000, 0.436332, 509.996, 513.724, 511.261, 481.591, 524.803, 633.521, 3.968
0.000000, -0.087266, 0.087266, 0.001523, 0.785398, 0.087266, 0.001523, 0.785398, 0.000000, -0.034907, 0.715585, -0.872665, 0.000000, 0.436332, 0.000000, 0.034907, 0.715585, -0.872665, 0.000000, 0.436332, 509.707, 513.657, 511.154, 475.541, 522.014, 636.301, 3.984
0.000000, -0.087266, 0.087266, 0.001523, 0.785398, 0.087266, 0.001523, 0.785398, 0.000000, -0.034907, 0.715585, -0.872665, 0.000000, 0.436332, 0.000000, 0.034907, 0.715585, -0.872665, 0.000000, 0.436332, 509.439, 513.814, 510.997, 481.386, 521.76, 634.937, 4
0.000000, -0.087266, 0.087266, 0.001523, 0.785398, 0.087266, 0.001523, 0.785398, 0.000000, -0.034907, 0.715585, -0.872665, 0.000000, 0.436332, 0.000000, 0.034907, 0.715585, -0.872665, 0.000000, 0.436332, 509.466, 513.726, 511.121, 473.363, 516.051, 640.28, 4.016
0.000000, -0.087266, 0.087266, 0.001523, 0.785398, 0.087266, 0.001523, 0.785398, 0.000000, -0.034907, 0.715585, -0.872665, 0.000000, 0.436332, 0.000000, 0.034907, 0.715585, -0.872665, 0.000000, 0.436332, 509.452, 513.642, 511.111, 475.851, 515.409, 633.797, 4.032
0.000000, -0.087266, 0.087266, 0.001523, 0.785398, 0.087266, 0.001523, 0.785398, 0.000000, -0.034907, 0.715585, -0.872665, 0.000000, 0.436332, 0.000000, 0.034907, 0.715585, -0.872665, 0.000000, 0.436332, 509.491, 513.557, 511.1, 475.519, 514.418, 634.281, 4.048
0.000000, -0.087266, 0.087266, 0.001523, 0.785398, 0.087266, 0.001523, 0.785398, 0.000000, -0.034907, 0.715585, -0.872665, 0.000000, 0.436332, 0.000000, 0.034907, 0.715585, -0.872665, 0.000000, 0.436332, 509.537, 513.117, 511.114, 471.247, 513.857, 634.225, 4.064
0.000000, -0.087266, 0.087266, 0.001523, 0.785398, 0.087266, 0.001523, 0.785398, 0.000000, -0.034907, 0.715585, -0.872665, 0.000000, 0.436332, 0.000000, 0.034907, 0.715585, -0.872665, 0.000000, 0.436332, 509.672, 512.918, 511.289, 471.839, 510.805, 633.977, 4.08
0.000000, -0.087266, 0.087266, 0.001523, 0.785398, 0.087266, 0.001523, 0.785398, 0.000000, -0.034907, 0.715585, -0.872665, 0.000000, 0.436332, 0.000000, 0.034907, 0.715585, -0.872665, 0.000000, 0.436332, 509.852, 512.707, 511.341, 471.996, 510.582, 634.389, 4.096
0.000000, -0.087266, 0.087266, 0.001523, 0.785398, 0.087266, 0.001523, 0.785398, 0.000000, -0.034907, 0.715585, -0.872665, 0.000000, 0.436332, 0.000000, 0.034907, 0.715585, -0.872665, 0.000000, 0.436332, 510.036, 512.508, 511.394, 472.251, 510.357, 634.424, 4.112
0.000000, -0.087266, 0.087266, 0.001523, 0.785398, 0.087266, 0.001523, 0.785398, 0.000000, -0.034907, 0.715585, -0.872665, 0.000000, 0.436332, 0.000000, 0.034907, 0.715585, -0.872665, 0.000000, 0.436332, 510.217, 512.331, 511.497, 472.563, 510.365, 634.435, 4.128
0.000000, -0.087266, 0.087266, 0.001523, 0.785398, 0.087266, 0.001523, 0.785398, 0.000000, -0.034907, 0.715585, -0.872665, 0.000000, 0.436332, 0.000000, 0.034907, 0.715585, -0.872665, 0.000000, 0.436332, 510.396, 512.164, 511.495, 473.142, 509.954, 634.483, 4.144
0.000000, -0.087266, 0.087266, 0.001523, 0.785398, 0.087266, 0.001523, 0.785398, 0.000000, -0.034907, 0.715585, -0.872665, 0.000000, 0.436332, 0.000000, 0.034907, 0.715585, -0.872665, 0.000000, 0.436332, 510.623, 511.985, 511.179, 473.788, 527.089, 635.798, 4.16
0.000000, -0.087266, 0.087266, 0.001523, 0.785398, 0.087266, 0.001523, 0.785398, 0.000000, -0.034907, 0.715585, -0.872665, 0.000000, 0.436332, 0.000000, 0.034907, 0.715585, -0.872665, 0.000000, 0.436332, 510.732, 511.862, 511.198, 474.056, 511.705, 634.81, 4.176
0.000000, -0.087266, 0.087266, 0.001523, 0.785398, 0.087266, 0.001523, 0.785398, 0.000000, -0.034907, 0.715585, -0.872665, 0.000000, 0.436332, 0.000000, 0.034907, 0.715585, -0.872665, 0.000000, 0.436332, 510.86, 511.764, 511.213, 474.633, 511.095, 634.795, 4.192
0.000000, -0.087266, 0.087266, 0.001523, 0.785398, 0.087266, 0.001523, 0.785398, 0.000000, -0.034907, 0.715585, -0.872665, 0.000000, 0.436332, 0.000000, 0.034907, 0.715585, -0.872665, 0.000000, 0.436332, 509.859, 511.752, 511.376, 475.142, 505.348, 632.987, 4.208
0.000000, -0.087266, 0.087266, 0.001523, 0.785398, 0.087266, 0.001523, 0.785398, 0.000000, -0.034907, 0.715585, -0.872665, 0.000000, 0.436332, 0.000000, 0.034907, 0.715585, -0.872665, 0.000000, 0.436332, 509.954, 511.706, 511.42, 475.627, 508.806, 634.941, 4.224
0.000000, -0.087266, 0.087266, 0.001523, 0.785398, 0.087266, 0.001523, 0.785398, 0.000000, -0.034907, 0.715585, -0.872665, 0.000000, 0.436332, 0.000000, 0.034907, 0.715585, -0.872665, 0.000000, 0.436332, 510.103, 511.674, 511.465, 476.058, 508.444, 635.122, 4.24
0.000000, -0.087266, 0.087266, 0.001523, 0.785398, 0.087266, 0.001523, 0.785398, 0.000000, -0.034907, 0.715585, -0.872665, 0.000000, 0.436332, 0.000000, 0.034907, 0.715585, -0.872665, 0.000000, 0.436332, 510.26, 511.658, 511.507, 476.454, 508.095, 635.223, 4.256
0.000000, -0.087266, 0.087266, 0.001523, 0.785398, 0.087266, 0.001523, 0.785398, 0.000000, -0.034907, 0.715585, -0.872665, 0.000000, 0.436332, 0.000000, 0.034907, 0.715585, -0.872665, 0.000000, 0.436332, 510.421, 511.656, 511.553, 476.788, 507.799, 635.316, 4.272
0.000000, -0.087266, 0.087266, 0.001523, 0.785398, 0.087266, 0.001523, 0.785398, 0.000000, -0.034907, 0.715585, -0.872665, 0.000000, 0.436332, 0.000000, 0.034907, 0.715585, -0.872665, 0.000000, 0.436332, 510.586, 511.666, 511.598, 477.072, 507.555, 635.396, 4.288
0.000000, -0.087266, 0.087266, 0.001523, 0.785398, 0.087266, 0.001523, 0.785398, 0.000000, -0.034907, 0.715585, -0.872665, 0.000000, 0.436332, 0.000000, 0.034907, 0.715585, -0.872665, 0.000000, 0.436332, 510.753, 511.684, 511.645, 477.304, 507.36, 635.461, 4.304
0.000000, -0.087266, 0.087266, 0.001523, 0.785398, 0.087266, 0.001523, 0.785398, 0.000000, -0.034907, 0.715585, -0.872665, 0.000000, 0.436332, 0.000000, 0.034907, 0.715585, -0.872665, 0.000000, 0.436332, 510.919, 511.71, 511.693, 477.484, 507.218, 635.511, 4.32
0.000000, -0.087266, 0.087266, 0.001523, 0.785398, 0.087266, 0.001523, 0.785398, 0.000000, -0.034907, 0.715585, -0.872665, 0.000000, 0.436332, 0.000000, 0.034907, 0.715585, -0.872665, 0.000000, 0.436332, 511.086, 511.741, 511.739, 477.618, 507.121, 635.548, 4.336
0.000000, -0.087266, 0.087266, 0.001523, 0.785398, 0.087266, 0.001523, 0.785398, 0.000000, -0.034907, 0.715585, -0.872665, 0.000000, 0.436332, 0.000000, 0.034907, 0.715585, -0.872665, 0.000000, 0.436332, 511.25, 511.772, 511.787, 477.692, 507.076, 635.573, 4.352
0.000000, -0.087266, 0.087266, 0.001523, 0.785398, 0.087266, 0.001523, 0.785398, 0.000000, -0.034907, 0.715585, -0.872665, 0.000000, 0.436332, 0.000000, 0.034907, 0.715585, -0.872665, 0.000000, 0.436332, 511.452, 511.776, 511.847, 476.996, 506.157, 635.988, 4.368
0.000000, -0.087266, 0.087266, 0.001523, 0.785398, 0.087266, 0.001523, 0.785398, 0.000000, -0.034907, 0.715585, -0.872665, 0.000000, 0.436332, 0.000000, 0.034907, 0.715585, -0.872665, 0.000000, 0.436332, 511.637, 511.787, 511.902, 477.352, 506.483, 635.416, 4.384
0.000000, -0.087266, 0.087266, 0.001523, 0.785398, 0.087266, 0.001523, 0.785398, 0.000000, -0.034907, 0.715585, -0.872665, 0.000000, 0.436332, 0.000000, 0.034907, 0.715585, -0.872665, 0.000000, 0.436332, 511.828, 511.829, 511.955, 477.949, 506.329, 635.733, 4.4
0.000000, -0.087266, 0.087266, 0.001523, 0.785398, 0.087266, 0.001523, 0.785398, 0.000000, -0.034907, 0.715585, -0.872665, 0.000000, 0.436332, 0.000000, 0.034907, 0.715585, -0.872665, 0.000000, 0.436332, 511.995, 511.876, 512.001, 478.049, 506.905, 635.374, 4.416
0.000000, -0.087266, 0.087266, 0.001523, 0.785398, 0.087266, 0.001523, 0.785398, 0.000000, -0.034907, 0.715585, -0.872665, 0.000000, 0.436332, 0.000000, 0.034907, 0.715585, -0.872665, 0.000000, 0.436332, 512.134, 511.919, 512.04, 477.998, 507.539, 635.316, 4.432
0.000000, -0.087266, 0.087266, 0.001523, 0.785398, 0.087266, 0.001523, 0.785398, 0.000000, -0.034907, 0.715585, -0.872665, 0.000000, 0.436332, 0.000000, 0.034907, 0.715585, -0.872665, 0.000000, 0.436332, 512.256, 511.95, 512.075, 477.8, 507.957, 635.407, 4.448
0.000000, -0.087266, 0.087266, 0.001523, 0.785398, 0.087266, 0.001523, 0.785398, 0.000000, -0.034907, 0.715585, -0.872665, 0.000000, 0.436332, 0.000000, 0.034907, 0.715585, -0.872665, 0.000000, 0.436332, 512.369, 511.978, 512.109, 477.679, 508.186, 635.513, 4.464
0.000000, -0.087266, 0.087266, 0.001523, 0.785398, 0.087266, 0.001523, 0.785398, 0.000000, -0.034907, 0.715585, -0.872665, 0.000000, 0.436332, 0.000000, 0.034907, 0.715585, -0.872665, 0.000000, 0.436332, 512.474, 512.001, 512.138, 477.59, 508.435, 635.49, 4.48
0.000000, -0.087266, 0.087266, 0.001523, 0.785398, 0.087266, 0.001523, 0.785398, 0.000000, -0.034907, 0.715585, -0.872665, 0.000000, 0.436332, 0.000000, 0.034907, 0.715585, -0.872665, 0.000000, 0.436332, 512.57, 512.019, 512.166, 477.503, 508.707, 635.445, 4.496
0.000000, -0.087266, 0.087266, 0.001523, 0.785398, 0.087266, 0.001523, 0.785398, 0.000000, -0.034907, 0.715585, -0.872665, 0.000000, 0.436332, 0.000000, 0.034907, 0.715585, -0.872665, 0.000000, 0.436332, 512.657, 512.034, 512.191, 477.418, 508.996, 635.399, 4.512
0.000000, -0.087266, 0.087266, 0.001523, 0.785398, 0.087266, 0.001523, 0.785398, 0.000000, -0.034907, 0.715585, -0.872665, 0.000000, 0.436332, 0.000000, 0.034907, 0.715585, -0.872665, 0.000000, 0.436332, 512.735, 512.045, 512.213, 477.338, 509.295, 635.354, 4.528
0.000000, -0.087266, 0.087266, 0.001523, 0.785398, 0.087266, 0.001523, 0.785398, 0.000000, -0.034907, 0.715585, -0.872665, 0.000000, 0.436332, 0.000000, 0.034907, 0.715585, -0.872665, 0.000000, 0.436332, 512.803, 512.052, 512.232, 477.261, 509.607, 635.313, 4.544
0.000000, -0.087266, 0.087266, 0.001523, 0.785398, 0.087266, 0.001523, 0.785398, 0.000000, -0.033231, 0.711396, -0.867080, 0.002094, 0.434238, 0.000000, 0.038587, 0.709594, -0.866223, 0.006919, 0.433114, 513.064, 511.698, 512.176, 477.848, 512.575, 639.938, 4.56
0.000000, -0.087266, 0.087266, 0.001523, 0.785398, 0.087266, 0.001523, 0.785398, 0.000000, -0.029880, 0.703019, -0.855910, 0.006283, 0.430049, 0.000000, 0.045949, 0.697611, -0.853338, 0.020758, 0.426677, 513.283, 511.014, 512.078, 477.933, 514.4, 643.88, 4.576
0.000000, -0.087266, 0.087266, 0.001523, 0.785398, 0.087266, 0.001523, 0.785398, 0.000000, -0.026529, 0.694641, -0.844740, 0.010472, 0.425860, 0.000000, 0.053311, 0.685628, -0.840454, 0.034597, 0.420240, 513.084, 511.285, 511.99, 475.417, 514.058, 643.068, 4.592
0.000000, -0.087266, 0.087266, 0.001523, 0.785398, 0.087266, 0.001523, 0.785398, 0.000000, -0.023178, 0.686263, -0.833570, 0.014661, 0.421671, 0.000000, 0.060673, 0.673645, -0.827570, 0.048436, 0.413803, 512.787, 511.226, 511.959, 479.23, 514.061, 642.052, 4.608
0.000000, -0.087266, 0.087266, 0.001523, 0.785398, 0.087266, 0.001523, 0.785398, 0.000000, -0.019827, 0.677886, -0.822399, 0.018850, 0.417482, 0.000000, 0.068034, 0.661662, -0.814685, 0.062275, 0.407367, 512.456, 511.141, 511.934, 479.138, 513.642, 640.287, 4.624
0.000000, -0.087266, 0.087266, 0.001523, 0.785398, 0.087266, 0.001523, 0.785398, 0.000000, -0.016476, 0.669508, -0.811229, 0.023038, 0.413294, 0.000000, 0.075396, 0.649679, -0.801801, 0.076113, 0.400930, 512.112, 511.075, 511.914, 479.261, 513.322, 639.154, 4.64
0.000000, -0.087266, 0.087266, 0.001523, 0.785398, 0.087266, 0.001523, 0.785398, 0.000000, -0.013125, 0.661131, -0.800059, 0.027227, 0.409105, 0.000000, 0.082758, 0.637696, -0.788916, 0.089952, 0.394493, 513.835, 510.792, 512.171, 472.367, 538.192, 641.644, 4.656
0.000000, -0.087266, 0.087266, 0.001523, 0.785398, 0.087266, 0.001523, 0.785398, 0.000000, -0.009774, 0.652753, -0.788889, 0.031416, 0.404916, 0.000000, 0.090120, 0.625713, -0.776032, 0.103791, 0.388056, 514.712, 510.673, 512.636, 478.897, 528.631, 634.241, 4.672
0.000000, -0.087266, 0.087266, 0.001523, 0.785398, 0.087266, 0.001523, 0.785398, 0.000000, -0.006423, 0.644376, -0.777719, 0.035605, 0.400727, 0.000000, 0.097481, 0.613730, -0.763147, 0.117630, 0.381620, 514.906, 510.254, 512.67, 470.576, 527.439, 638.776, 4.688
0.000000, -0.087266, 0.087266, 0.001523, 0.785398, 0.087266, 0.001523, 0.785398, 0.000000, -0.003072, 0.635998, -0.766549, 0.039793, 0.396539, 0.000000, 0.104843, 0.601747, -0.750263, 0.131469, 0.375183, 514.081, 509.99, 511.253, 474.763, 530.373, 634.674, 4.704
0.000000, -0.087266, 0.087266, 0.001523, 0.785398, 0.087266, 0.001523, 0.785398, 0.000000, 0.000279, 0.627620, -0.755379, 0.043982, 0.392350, 0.000000, 0.112205, 0.589764, -0.737379, 0.145308, 0.368746, 511.067, 509.755, 510.789, 476.101, 514.404, 635.35, 4.72
0.000000, -0.087266, 0.087266, 0.001523, 0.785398, 0.087266, 0.001523, 0.785398, 0.000000, 0.003630, 0.619243, -0.744209, 0.048171, 0.388161, 0.000000, 0.119567, 0.577781, -0.724494, 0.159146, 0.362310, 510.218, 509.515, 511.094, 475.827, 531.607, 634.843, 4.736
0.000000, -0.087266, 0.087266, 0.001523, 0.785398, 0.087266, 0.001523, 0.785398, 0.000000, 0.006981, 0.610865, -0.733039, 0.052360, 0.383972, 0.000000, 0.126928, 0.565798, -0.711610, 0.172985, 0.355873, 509.994, 509.275, 511.36, 475.994, 523.294, 634.611, 4.752
0.000000, -0.087266, 0.087266, 0.001523, 0.785398, 0.087266, 0.001523, 0.785398, 0.000000, 0.010332, 0.602488, -0.721868, 0.056549, 0.379783, 0.000000, 0.134290, 0.553815, -0.698725, 0.186824, 0.349436, 509.222, 509.068, 511.647, 477.05, 530.196, 634.383, 4.768
0.000000, -0.087266, 0.087266, 0.001523, 0.785398, 0.087266, 0.001523, 0.785398, 0.000000, 0.013683, 0.594110, -0.710698, 0.060737, 0.375595, 0.000000, 0.141652, 0.541832, -0.685841, 0.200663, 0.342999, 508.47, 508.84, 513.495, 478.015, 533.076, 633.768, 4.784
0.000000, -0.087266, 0.087266, 0.001523, 0.785398, 0.087266, 0.001523, 0.785398, 0.000000, 0.017034, 0.585732, -0.699528, 0.064926, 0.371406, 0.000000, 0.149013, 0.529849, -0.672957, 0.214502, 0.336563, 508.021, 508.293, 515.556, 472.953, 524.481, 627.111, 4.8
0.000000, -0.087266, 0.087266, 0.001523, 0.785398, 0.087266, 0.001523, 0.785398, 0.000000, 0.020385, 0.577355, -0.688358, 0.069115, 0.367217, 0.000000, 0.156375, 0.517866, -0.660072, 0.228340, 0.330126, 507.906, 508.003, 514.858, 475.37, 515.212, 631.398, 4.816
0.000000, -0.087266, 0.087266, 0.001523, 0.785398, 0.087266, 0.001523, 0.785398, 0.000000, 0.023736, 0.568977, -0.677188, 0.073304, 0.363028, 0.000000, 0.163737, 0.505883, -0.647188, 0.242179, 0.323689, 507.92, 507.74, 514.132, 475.826, 511.858, 632.305, 4.832
0.000000, -0.087266, 0.087266, 0.001523, 0.785398, 0.087266, 0.001523, 0.785398, 0.000000, 0.027088, 0.560600, -0.666018, 0.077493, 0.358839, 0.000000, 0.171099, 0.493900, -0.634303, 0.256018, 0.317252, 507.881, 507.286, 513.226, 487.312, 511.773, 631.804, 4.848
0.000000, -0.087266, 0.087266, 0.001523, 0.785398, 0.087266, 0.001523, 0.785398, 0.000000, 0.030439, 0.552222, -0.654848, 0.081681, 0.354651, 0.000000, 0.178460, 0.481917, -0.621419, 0.269857, 0.310816, 507.935, 507.118, 512.421, 480.547, 509.658, 632.826, 4.864
0.000000, -0.087266, 0.087266, 0.001523, 0.785398, 0.087266, 0.001523, 0.785398, 0.000000, 0.033790, 0.543845, -0.643678, 0.085870, 0.350462, 0.000000, 0.185822, 0.469934, -0.608534, 0.283696, 0.304379, 508.167, 506.146, 511.637, 487.552, 498.748, 646.737, 4.88
0.000000, -0.087266, 0.087266, 0.001523, 0.785398, 0.087266, 0.001523, 0.785398, 0.000000, 0.037141, 0.535467, -0.632508, 0.090059, 0.346273, 0.000000, 0.193184, 0.457951, -0.595650, 0.297535, 0.297942, 507.759, 505.777, 510.684, 486.156, 510.861, 630.409, 4.896
0.000000, -0.087266, 0.087266, 0.001523, 0.785398, 0.087266, 0.001523, 0.785398, 0.000000, 0.040492, 0.527089, -0.621337, 0.094248, 0.342084, 0.000000, 0.200546, 0.445968, -0.582766, 0.311373, 0.291505, 507.975, 505.728, 509.747, 483.544, 503.378, 633.142, 4.912
0.000000, -0.087266, 0.087266, 0.001523, 0.785398, 0.087266, 0.001523, 0.785398, 0.000000, 0.043843, 0.518712, -0.610167, 0.098436, 0.337896, 0.000000, 0.207907, 0.433985, -0.569881, 0.325212, 0.285069, 508.129, 506.221, 509.623, 481.28, 503.338, 636.303, 4.928
0.000000, -0.087266, 0.087266, 0.001523, 0.785398, 0.087266, 0.001523, 0.785398, 0.000000, 0.047194, 0.510334, -0.598997, 0.102625, 0.333707, 0.000000, 0.215269, 0.422002, -0.556997, 0.339051, 0.278632, 508.447, 506.784, 509.853, 481.656, 499.762, 638.098, 4.944
0.000000, -0.087266, 0.087266, 0.001523, 0.785398, 0.087266, 0.001523, 0.785398, 0.000000, 0.050545, 0.501957, -0.587827, 0.106814, 0.329518, 0.000000, 0.222631, 0.410019, -0.544112, 0.352890, 0.272195, 508.825, 507.499, 510.064, 483.318, 498.279, 639.656, 4.96
0.000000, -0.087266, 0.087266, 0.001523, 0.785398, 0.087266, 0.001523, 0.785398, 0.000000, 0.053896, 0.493579, -0.576657, 0.111003, 0.325329, 0.000000, 0.229993, 0.398036, -0.531228, 0.366729, 0.265758, 509.118, 507.472, 510.227, 495.903, 500.05, 635.876, 4.976
0.000000, -0.087266, 0.087266, 0.001523, 0.785398, 0.087266, 0.001523, 0.785398, 0.000000, 0.057247, 0.485201, -0.565487, 0.115192, 0.321140, 0.000000, 0.237354, 0.386053, -0.518344, 0.380567, 0.259322, 509.397, 507.693, 510.395, 490.973, 500.044, 636.989, 4.992
0.000000, -0.087266, 0.087266, 0.001523, 0.785398, 0.087266, 0.001523, 0.785398, 0.000000, 0.060598, 0.476824, -0.554317, 0.119380, 0.316952, 0.000000, 0.244716, 0.374070, -0.505459, 0.394406, 0.252885, 509.665, 507.952, 510.542, 491.312, 500.134, 637.472, 5.008
0.000000, -0.087266, 0.087266, 0.001523, 0.785398, 0.087266, 0.001523, 0.785398, 0.000000, 0.063949, 0.468446, -0.543147, 0.123569, 0.312763, 0.000000, 0.252078, 0.362087, -0.492575, 0.408245, 0.246448, 510.728, 508.141, 510.845, 490.966, 488.882, 639.937, 5.024
0.000000, -0.087266, 0.087266, 0.001523, 0.785398, 0.087266, 0.001523, 0.785398, 0.000000, 0.067300, 0.460069, -0.531977, 0.127758, 0.308574, 0.000000, 0.259439, 0.350104, -0.479690, 0.422084, 0.240012, 510.982, 508.273, 510.977, 491.52, 499.378, 637.596, 5.04
0.000000, -0.087266, 0.087266, 0.001523, 0.785398, 0.087266, 0.001523, 0.785398, 0.000000, 0.070651, 0.451691, -0.520806, 0.131947, 0.304385, 0.000000, 0.266801, 0.338121, -0.466806, 0.435923, 0.233575, 511.214, 508.422, 511.09, 491.65, 500.306, 637.529, 5.056
0.000000, -0.087266, 0.087266, 0.001523, 0.785398, 0.087266, 0.001523, 0.785398, 0.000000, 0.074002, 0.443314, -0.509636, 0.136135, 0.300197, 0.000000, 0.274163, 0.326138, -0.453921, 0.449762, 0.227138, 511.417, 508.582, 511.186, 491.844, 500.926, 637.554, 5.072
0.000000, -0.087266, 0.087266, 0.001523, 0.785398, 0.087266, 0.001523, 0.785398, 0.000000, 0.077353, 0.434936, -0.498466, 0.140324, 0.296008, 0.000000, 0.281525, 0.314155, -0.441037, 0.463600, 0.220701, 511.594, 508.755, 511.267, 492.082, 501.477, 637.607, 5.088
0.000000, -0.087266, 0.087266, 0.001523, 0.785398, 0.087266, 0.001523, 0.785398, 0.000000, 0.080704, 0.426558, -0.487296, 0.144513, 0.291819, 0.000000, 0.288886, 0.302172, -0.428153, 0.477439, 0.214265, 511.746, 508.942, 511.332, 492.352, 502.016, 637.696, 5.104
0.000000, -0.087266, 0.087266, 0.001523, 0.785398, 0.087266, 0.001523, 0.785398, 0.000000, 0.084055, 0.418181, -0.476126, 0.148702, 0.287630, 0.000000, 0.296248, 0.290189, -0.415268, 0.491278, 0.207828, 511.878, 509.145, 511.384, 492.694, 502.461, 637.74, 5.12
0.000000, -0.087266, 0.087266, 0.001523, 0.785398, 0.087266, 0.001523, 0.785398, 0.000000, 0.087406, 0.409803, -0.464956, 0.152891, 0.283441, 0.000000, 0.303610, 0.278206, -0.402384, 0.505117, 0.201391, 511.99, 509.367, 511.423, 493.053, 502.907, 637.843, 5.136
0.000000, -0.087266, 0.087266, 0.001523, 0.785398, 0.087266, 0.001523, 0.785398, 0.000000, 0.090757, 0.401426, -0.453786, 0.157079, 0.279253, 0.000000, 0.310972, 0.266223, -0.389499, 0.518956, 0.194954, 512.084, 509.609, 511.452, 493.46, 503.316, 637.925, 5.152
0.000000, -0.087266, 0.087266, 0.001523, 0.785398, 0.087266, 0.001523, 0.785398, 0.000000, 0.094108, 0.393048, -0.442616, 0.161268, 0.275064, 0.000000, 0.318333, 0.254240, -0.376615, 0.532794, 0.188518, 512.159, 509.875, 511.468, 493.868, 503.763, 638.058, 5.168
0.000000, -0.087266, 0.087266, 0.001523, 0.785398, 0.087266, 0.001523, 0.785398, 0.000000, 0.097459, 0.384670, -0.431446, 0.165457, 0.270875, 0.000000, 0.325695, 0.242257, -0.363731, 0.546633, 0.182081, 512.227, 510.166, 511.475, 494.286, 504.059, 638.207, 5.184
0.000000, -0.087266, 0.087266, 0.001523, 0.785398, 0.087266, 0.001523, 0.785398, 0.000000, 0.100810, 0.376293, -0.420275, 0.169646, 0.266686, 0.000000, 0.333057, 0.230274, -0.350846, 0.560472, 0.175644, 512.291, 510.501, 511.47, 494.807, 504.26, 638.32, 5.2
0.000000, -0.087266, 0.087266, 0.001523, 0.785398, 0.087266, 0.001523, 0.785398, 0.000000, 0.104161, 0.367915, -0.409105, 0.173835, 0.262497, 0.000000, 0.340419, 0.218291, -0.337962, 0.574311, 0.169207, 512.355, 510.897, 511.452, 495.463, 504.356, 638.442, 5.216
0.000000, -0.087266, 0.087266, 0.001523, 0.785398, 0.087266, 0.001523, 0.785398, 0.000000, 0.107512, 0.359538, -0.397935, 0.178023, 0.258309, 0.000000, 0.347780, 0.206308, -0.325077, 0.588150, 0.162771, 512.421, 511.356, 511.42, 496.19, 504.417, 638.584, 5.232
0.000000, -0.087266, 0.087266, 0.001523, 0.785398, 0.087266, 0.001523, 0.785398, 0.000000, 0.110863, 0.351160, -0.386765, 0.182212, 0.254120, 0.000000, 0.355142, 0.194325, -0.312193, 0.601988, 0.156334, 512.489, 511.885, 511.372, 496.878, 504.421, 638.788, 5.248
0.000000, -0.087266, 0.087266, 0.001523, 0.785398, 0.087266, 0.001523, 0.785398, 0.000000, 0.114214, 0.342783, -0.375595, 0.186401, 0.249931, 0.000000, 0.362504, 0.182342, -0.299308, 0.615827, 0.149897, 512.56, 512.488, 511.308, 497.517, 504.389, 638.987, 5.264
0.000000, -0.087266, 0.087266, 0.001523, 0.785398, 0.087266, 0.001523, 0.785398, 0.000000, 0.117565, 0.334405, -0.364425, 0.190590, 0.245742, 0.000000, 0.369866, 0.170359, -0.286424, 0.629666, 0.143461, 512.635, 513.166, 511.226, 498.204, 504.339, 639.048, 5.28
0.000000, -0.087266, 0.087266, 0.001523, 0.785398, 0.087266, 0.001523, 0.785398, 0.000000, 0.120916, 0.326027, -0.353255, 0.194778, 0.241554, 0.000000, 0.377227, 0.158376, -0.273540, 0.643505, 0.137024, 512.721, 513.954, 511.121, 499.05, 504.091, 639.038, 5.296
0.000000, -0.087266, 0.087266, 0.001523, 0.785398, 0.087266, 0.001523, 0.785398, 0.000000, 0.124267, 0.317650, -0.342085, 0.198967, 0.237365, 0.000000, 0.384589, 0.146393, -0.260655, 0.657344, 0.130587, 512.8, 514.751, 511.014, 499.502, 504.359, 639.072, 5.312
0.000000, -0.087266, 0.087266, 0.001523, 0.785398, 0.087266, 0.001523, 0.785398, 0.000000, 0.127619, 0.309272, -0.330915, 0.203156, 0.233176, 0.000000, 0.391951, 0.134410, -0.247771, 0.671183, 0.124150, 512.838, 514.813, 511.072, 497.016, 504.904, 637.014, 5.328
0.000000, -0.087266, 0.087266, 0.001523, 0.785398, 0.087266, 0.001523, 0.785398, 0.000000, 0.130970, 0.300895, -0.319744, 0.207345, 0.228987, 0.000000, 0.399312, 0.122427, -0.234886, 0.685021, 0.117714, 512.866, 514.83, 511.136, 495.536, 505.277, 635.962, 5.344
0.000000, -0.087266, 0.087266, 0.001523, 0.785398, 0.087266, 0.001523, 0.785398, 0.000000, 0.134321, 0.292517, -0.308574, 0.211534, 0.224798, 0.000000, 0.406674, 0.110444, -0.222002, 0.698860, 0.111277, 512.893, 514.841, 511.173, 495.656, 505.573, 636.143, 5.36
0.000000, -0.087266, 0.087266, 0.001523, 0.785398, 0.087266, 0.001523, 0.785398, 0.000000, 0.137672, 0.284139, -0.297404, 0.215722, 0.220610, 0.000000, 0.414036, 0.098461, -0.209118, 0.712699, 0.104840, 512.916, 514.844, 511.188, 495.779, 505.853, 636.451, 5.376
0.000000, -0.087266, 0.087266, 0.001523, 0.785398, 0.087266, 0.001523, 0.785398, 0.000000, 0.141023, 0.275762, -0.286234, 0.219911, 0.216421, 0.000000, 0.421398, 0.086478, -0.196233, 0.726538, 0.098403, 512.981, 514.996, 511.175, 495.473, 505.088, 636.093, 5.392
0.000000, -0.087266, 0.087266, 0.001523, 0.785398, 0.087266, 0.001523, 0.785398, 0.000000, 0.144374, 0.267384, -0.275064, 0.224100, 0.212232, 0.000000, 0.428759, 0.074495, -0.183349, 0.740377, 0.091967, 513.035, 515.14, 511.151, 495.574, 505.367, 636.7, 5.408
0.000000, -0.087266, 0.087266, 0.001523, 0.785398, 0.087266, 0.001523, 0.785398, 0.000000, 0.147725, 0.259007, -0.263894, 0.228289, 0.208043, 0.000000, 0.436121, 0.062512, -0.170464, 0.754215, 0.085530, 513.081, 515.277, 511.118, 495.753, 505.643, 636.892, 5.424
0.000000, -0.087266, 0.087266, 0.001523, 0.785398, 0.087266, 0.001523, 0.785398, 0.000000, 0.151076, 0.250629, -0.252724, 0.232478, 0.203854, 0.000000, 0.443483, 0.050529, -0.157580, 0.768054, 0.079093, 512.663, 515.378, 510.899, 496.337, 516.498, 634.929, 5.44
0.000000, -0.087266, 0.087266, 0.001523, 0.785398, 0.087266, 0.001523, 0.785398, 0.000000, 0.154427, 0.242252, -0.241554, 0.236666, 0.199666, 0.000000, 0.450845, 0.038546, -0.144695, 0.781893, 0.072656, 512.358, 515.499, 510.833, 496.222, 507.286, 636.691, 5.456
0.000000, -0.087266, 0.087266, 0.001523, 0.785398, 0.087266, 0.001523, 0.785398, 0.000000, 0.157778, 0.233874, -0.230384, 0.240855, 0.195477, 0.000000, 0.458206, 0.026563, -0.131811, 0.795732, 0.066220, 512.22, 515.648, 511.027, 475.467, 509.431, 637.478, 5.472
0.000000, -0.087266, 0.087266, 0.001523, 0.785398, 0.087266, 0.001523, 0.785398, 0.000000, 0.161129, 0.225496, -0.219213, 0.245044, 0.191288, 0.000000, 0.465568, 0.014580, -0.118927, 0.809571, 0.059783, 512.126, 515.762, 511.086, 477.497, 507.839, 635.329, 5.488
0.000000, -0.087266, 0.087266, 0.001523, 0.785398, 0.087266, 0.001523, 0.785398, 0.000000, 0.164480, 0.217119, -0.208043, 0.249233, 0.187099, 0.000000, 0.472930, 0.002597, -0.106042, 0.823410, 0.053346, 512.051, 515.853, 511.066, 478.989, 507.741, 634.275, 5.504
0.000000, -0.087266, 0.087266, 0.001523, 0.785398, 0.087266, 0.001523, 0.785398, 0.000000, 0.167831, 0.208741, -0.196873, 0.253421, 0.182911, 0.000000, 0.480292, -0.009386, -0.093158, 0.837248, 0.046909, 511.984, 515.93, 511, 479.934, 507.782, 634.43, 5.52
0.000000, -0.087266, 0.087266, 0.001523, 0.785398, 0.087266, 0.001523, 0.785398, 0.000000, 0.171182, 0.200364, -0.185703, 0.257610, 0.178722, 0.000000, 0.487653, -0.021369, -0.080273, 0.851087, 0.040473, 511.917, 515.994, 510.902, 480.736, 507.895, 634.7, 5.536
0.000000, -0.087266, 0.087266, 0.001523, 0.785398, 0.087266, 0.001523, 0.785398, 0.000000, 0.174533, 0.191986, -0.174533, 0.261799, 0.174533, 0.000000, 0.495015, -0.033352, -0.067389, 0.864926, 0.034036, 511.841, 516.047, 510.785, 481.381, 508.146, 634.858, 5.552
0.000000, -0.087266, 0.087266, 0.001523, 0.785398, 0.087266, 0.001523, 0.785398, 0.000000, 0.174533, 0.191986, -0.174533, 0.261799, 0.174533, 0.000000, 0.495019, -0.036974, -0.074906, 0.864937, 0.037930, 511.446, 516.081, 510.712, 482.088, 504.715, 634.662, 5.568
0.000000, -0.087266, 0.087266, 0.001523, 0.785398, 0.087266, 0.001523, 0.785398, 0.000000, 0.174533, 0.191986, -0.174533, 0.261799, 0.174533, 0.000000, 0.495024, -0.040597, -0.082423, 0.864948, 0.041825, 511.095, 515.867, 510.62, 487.209, 505.436, 636.392, 5.584
0.000000, -0.087266, 0.087266, 0.001523, 0.785398, 0.087266, 0.001523, 0.785398, 0.000000, 0.174533, 0.191986, -0.174533, 0.261799, 0.174533, 0.000000, 0.495028, -0.044219, -0.089939, 0.864960, 0.045719, 510.68, 514.204, 510.962, 482.975, 506.199, 634.161, 5.6
0.000000, -0.087266, 0.087266, 0.001523, 0.785398, 0.087266, 0.001523, 0.785398, 0.000000, 0.174533, 0.191986, -0.174533, 0.261799, 0.174533, 0.000000, 0.495032, -0.046679, -0.095419, 0.864969, 0.048739, 510.327, 513.829, 511.149, 473.246, 506.347, 634.537, 5.616
0.000000, -0.087266, 0.087266, 0.001523, 0.785398, 0.087266, 0.001523, 0.785398, 0.000000, 0.174533, 0.191986, -0.174533, 0.261799, 0.174533, 0.000000, 0.495036, -0.048973, -0.100607, 0.864979, 0.051633, 510.004, 513.51, 511.24, 472.964, 506.438, 634.848, 5.632
0.000000, -0.087266, 0.087266, 0.001523, 0.785398, 0.087266, 0.001523, 0.785398, 0.000000, 0.174533, 0.191986, -0.174533, 0.261799, 0.174533, 0.000000, 0.495040, -0.051267, -0.105795, 0.864989, 0.054527, 509.7, 513.19, 511.293, 473.15, 506.617, 634.744, 5.648
0.000000, -0.087266, 0.087266, 0.001523, 0.785398, 0.087266, 0.001523, 0.785398, 0.000000, 0.174533, 0.191986, -0.174533, 0.261799, 0.174533, 0.000000, 0.495043, -0.052992, -0.110057, 0.864997, 0.057065, 509.409, 512.864, 511.313, 473.353, 506.784, 634.608, 5.664
0.000000, -0.087266, 0.087266, 0.001523, 0.785398, 0.087266, 0.001523, 0.785398, 0.000000, 0.174533, 0.191986, -0.174533, 0.261799, 0.174533, 0.000000, 0.495047, -0.054527, -0.114011, 0.865006, 0.059483, 509.126, 512.53, 511.324, 473.559, 506.92, 634.51, 5.68
0.000000, -0.087266, 0.087266, 0.001523, 0.785398, 0.087266, 0.001523, 0.785398, 0.000000, 0.174533, 0.191986, -0.174533, 0.261799, 0.174533, 0.000000, 0.495050, -0.056062, -0.117964, 0.865015, 0.061901, 508.849, 512.186, 511.321, 473.751, 506.988, 634.476, 5.696
0.000000, -0.087266, 0.087266, 0.001523, 0.785398, 0.087266, 0.001523, 0.785398, 0.000000, 0.174533, 0.191986, -0.174533, 0.261799, 0.174533, 0.000000, 0.495053, -0.057291, -0.121451, 0.865023, 0.064159, 509.66, 511.879, 511.482, 473.583, 491.343, 637.859, 5.712
0.000000, -0.087266, 0.087266, 0.001523, 0.785398, 0.087266, 0.001523, 0.785398, 0.000000, 0.174533, 0.191986, -0.174533, 0.261799, 0.174533, 0.000000, 0.495056, -0.058336, -0.124656, 0.865030, 0.066320, 509.571, 511.531, 511.466, 473.948, 503.003, 635.007, 5.728
0.000000, -0.087266, 0.087266, 0.001523, 0.785398, 0.087266, 0.001523, 0.785398, 0.000000, 0.174533, 0.191986, -0.174533, 0.261799, 0.174533, 0.000000, 0.495059, -0.059381, -0.127862, 0.865037, 0.068481, 509.506, 511.211, 511.441, 474.844, 503.301, 634.868, 5.744
0.000000, -0.087266, 0.087266, 0.001523, 0.785398, 0.087266, 0.001523, 0.785398, 0.000000, 0.174533, 0.191986, -0.174533, 0.261799, 0.174533, 0.000000, 0.495061, -0.060267, -0.130844, 0.865045, 0.070577, 509.45, 510.953, 511.404, 476.517, 503.116, 634.959, 5.76
0.000000, -0.087266, 0.087266, 0.001523, 0.785398, 0.087266, 0.001523, 0.785398, 0.000000, 0.174533, 0.191986, -0.174533, 0.261799, 0.174533, 0.000000, 0.495064, -0.060994, -0.133601, 0.865052, 0.072607, 509.395, 510.702, 511.371, 477.004, 503.016, 634.978, 5.776
0.000000, -0.087266, 0.087266, 0.001523, 0.785398, 0.087266, 0.001523, 0.785398, 0.000000, 0.174533, 0.191986, -0.174533, 0.261799, 0.174533, 0.000000, 0.495067, -0.061721, -0.136359, 0.865059, 0.074636, 509.339, 510.479, 511.335, 478.039, 502.874, 635.143, 5.792
0.000000, -0.087266, 0.087266, 0.001523, 0.785398, 0.087266, 0.001523, 0.785398, 0.000000, 0.174533, 0.191986, -0.174533, 0.261799, 0.174533, 0.000000, 0.495070, -0.062380, -0.139031, 0.865067, 0.076650, 509.283, 510.287, 511.302, 479.078, 502.733, 635.307, 5.808
0.000000, -0.087266, 0.087266, 0.001523, 0.785398, 0.087266, 0.001523, 0.785398, 0.000000, 0.174533, 0.191986, -0.174533, 0.261799, 0.174533, 0.000000, 0.495073, -0.062923, -0.141561, 0.865074, 0.078637, 509.224, 510.126, 511.275, 480.128, 502.575, 635.468, 5.824
0.000000, -0.087266, 0.087266, 0.001523, 0.785398, 0.087266, 0.001523, 0.785398, 0.000000, 0.174533, 0.191986, -0.174533, 0.261799, 0.174533, 0.000000, 0.495076, -0.063466, -0.144091, 0.865081, 0.080623, 509.305, 510.16, 511.331, 486.403, 498.778, 641.464, 5.84
0.000000, -0.087266, 0.087266, 0.001523, 0.785398, 0.087266, 0.001523, 0.785398, 0.000000, 0.174533, 0.191986, -0.174533, 0.261799, 0.174533, 0.000000, 0.495079, -0.063992, -0.146610, 0.865088, 0.082616, 509.367, 510.184, 511.367, 486.976, 499.164, 636.407, 5.856
0.000000, -0.087266, 0.087266, 0.001523, 0.785398, 0.087266, 0.001523, 0.785398, 0.000000, 0.174533, 0.191986, -0.174533, 0.261799, 0.174533, 0.000000, 0.495082, -0.064466, -0.149096, 0.865095, 0.084630, 509.438, 510.205, 511.412, 487.361, 498.812, 636.383, 5.872
0.000000, -0.087266, 0.087266, 0.001523, 0.785398, 0.087266, 0.001523, 0.785398, 0.000000, 0.174533, 0.191986, -0.174533, 0.261799, 0.174533, 0.000000, 0.495084, -0.064939, -0.151583, 0.865103, 0.086643, 509.521, 510.222, 511.461, 487.91, 498.257, 636.805, 5.888
0.000000, -0.087266, 0.087266, 0.001523, 0.785398, 0.087266, 0.001523, 0.785398, 0.000000, 0.174533, 0.191986, -0.174533, 0.261799, 0.174533, 0.000000, 0.495087, -0.065416, -0.154085, 0.865110, 0.088668, 509.615, 510.255, 511.525, 484.787, 497.668, 636.24, 5.904
0.000000, -0.087266, 0.087266, 0.001523, 0.785398, 0.087266, 0.001523, 0.785398, 0.000000, 0.174533, 0.191986, -0.174533, 0.261799, 0.174533, 0.000000, 0.495091, -0.065919, -0.156689, 0.865119, 0.090769, 509.722, 510.268, 511.592, 487.627, 497.174, 636.92, 5.92
0.000000, -0.087266, 0.087266, 0.001523, 0.785398, 0.087266, 0.001523, 0.785398, 0.000000, 0.174533, 0.191986, -0.174533, 0.261799, 0.174533, 0.000000, 0.495094, -0.066423, -0.159294, 0.865127, 0.092871, 509.841, 510.279, 511.665, 487.682, 496.703, 636.914, 5.936
0.000000, -0.087266, 0.087266, 0.001523, 0.785398, 0.087266, 0.001523, 0.785398, 0.000000, 0.174533, 0.191986, -0.174533, 0.261799, 0.174533, 0.000000, 0.495097, -0.066926, -0.161899, 0.865136, 0.094972, 509.97, 510.288, 511.738, 487.733, 496.271, 636.933, 5.952
0.000000, -0.087266, 0.087266, 0.001523, 0.785398, 0.087266, 0.001523, 0.785398, 0.000000, 0.174533, 0.191986, -0.174533, 0.261799, 0.174533, 0.000000, 0.495101, -0.067550, -0.164766, 0.865146, 0.097215, 510.109, 510.287, 511.804, 487.83, 495.867, 636.974, 5.968
0.000000, -0.087266, 0.087266, 0.001523, 0.785398, 0.087266, 0.001523, 0.785398, 0.000000, 0.174533, 0.191986, -0.174533, 0.261799, 0.174533, 0.000000, 0.495105, -0.068174, -0.167633, 0.865155, 0.099458, 510.255, 510.285, 511.871, 487.87, 495.532, 637.003, 5.984
0.000000, -0.087266, 0.087266, 0.001523, 0.785398, 0.087266, 0.001523, 0.785398, 0.000000, 0.174533, 0.191986, -0.174533, 0.261799, 0.174533, 0.000000, 0.495109, -0.068798, -0.170500, 0.865165, 0.101701, 510.408, 510.279, 511.928, 487.929, 495.232, 637.035, 6
0.000000, -0.087266, 0.087266, 0.001523, 0.785398, 0.087266, 0.001523, 0.785398, 0.000000, 0.174533, 0.191986, -0.174533, 0.261799, 0.174533, 0.000000, 0.495113, -0.069597, -0.173705, 0.865176, 0.104107, 510.566, 510.264, 511.985, 488.03, 494.988, 637.075, 6.016
0.000000, -0.087266, 0.087266, 0.001523, 0.785398, 0.087266, 0.001523, 0.785398, 0.000000, 0.174533, 0.191986, -0.174533, 0.261799, 0.174533, 0.000000, 0.495117, -0.070420, -0.176959, 0.865188, 0.106537, 510.727, 510.248, 512.041, 488.087, 494.802, 637.103, 6.032
0.000000, -0.087266, 0.087266, 0.001523, 0.785398, 0.087266, 0.001523, 0.785398, 0.000000, 0.174533, 0.191986, -0.174533, 0.261799, 0.174533, 0.000000, 0.495122, -0.071244, -0.180213, 0.865200, 0.108967, 510.89, 510.229, 512.088, 488.157, 494.656, 637.13, 6.048
0.000000, -0.087266, 0.087266, 0.001523, 0.785398, 0.087266, 0.001523, 0.785398, 0.000000, 0.174533, 0.191986, -0.174533, 0.261799, 0.174533, 0.000000, 0.495127, -0.072268, -0.183835, 0.865214, 0.111565, 511.054, 510.202, 512.138, 488.277, 494.567, 637.165, 6.064
0.000000, -0.087266, 0.087266, 0.001523, 0.785398, 0.087266, 0.001523, 0.785398, 0.000000, 0.174533, 0.191986, -0.174533, 0.261799, 0.174533, 0.000000, 0.495133, -0.073360, -0.187580, 0.865228, 0.114219, 511.216, 510.171, 512.181, 488.378, 494.517, 637.197, 6.08
0.000000, -0.087266, 0.087266, 0.001523, 0.785398, 0.087266, 0.001523, 0.785398, 0.000000, 0.174533, 0.191986, -0.174533, 0.261799, 0.174533, 0.000000, 0.495138, -0.074451, -0.191325, 0.865242, 0.116873, 511.376, 510.141, 512.223, 488.459, 494.525, 637.217, 6.096
0.000000, -0.087266, 0.087266, 0.001523, 0.785398, 0.087266, 0.001523, 0.785398, 0.000000, 0.174533, 0.191986, -0.174533, 0.261799, 0.174533, 0.000000, 0.495144, -0.075743, -0.195427, 0.865258, 0.119683, 511.532, 510.103, 512.267, 488.609, 494.569, 637.251, 6.112
0.000000, -0.087266, 0.087266, 0.001523, 0.785398, 0.087266, 0.001523, 0.785398, 0.000000, 0.174533, 0.191986, -0.174533, 0.261799, 0.174533, 0.000000, 0.495151, -0.077157, -0.199745, 0.865275, 0.122588, 511.685, 510.059, 512.304, 488.753, 494.646, 637.286, 6.128
0.000000, -0.087266, 0.087266, 0.001523, 0.785398, 0.087266, 0.001523, 0.785398, 0.000000, 0.174533, 0.191986, -0.174533, 0.261799, 0.174533, 0.000000, 0.495158, -0.078570, -0.204062, 0.865292, 0.125492, 511.838, 510.011, 512.306, 491.167, 494.791, 637.841, 6.144
0.000000, -0.087266, 0.087266, 0.001523, 0.785398, 0.087266, 0.001523, 0.785398, 0.000000, 0.174533, 0.191986, -0.174533, 0.261799, 0.174533, 0.000000, 0.495166, -0.080165, -0.208695, 0.865312, 0.128530, 511.976, 509.965, 512.352, 489.51, 494.952, 637.41, 6.16
0.000000, -0.087266, 0.087266, 0.001523, 0.785398, 0.087266, 0.001523, 0.785398, 0.000000, 0.174533, 0.191986, -0.174533, 0.261799, 0.174533, 0.000000, 0.495174, -0.081942, -0.213643, 0.865333, 0.131701, 512.15, 511.537, 511.992, 487.443, 494.407, 635.23, 6.176
0.000000, -0.087266, 0.087266, 0.001523, 0.785398, 0.087266, 0.001523, 0.785398, 0.000000, 0.174533, 0.191986, -0.174533, 0.261799, 0.174533, 0.000000, 0.495182, -0.083719, -0.218591, 0.865354, 0.134872, 512.273, 511.675, 512.019, 490.574, 495.338, 637.365, 6.192
0.000000, -0.087266, 0.087266, 0.001523, 0.785398, 0.087266, 0.001523, 0.785398, 0.000000, 0.174533, 0.191986, -0.174533, 0.261799, 0.174533, 0.000000, 0.495191, -0.085642, -0.223790, 0.865377, 0.138146, 512.388, 511.771, 512.047, 490.811, 495.599, 637.423, 6.208
0.000000, -0.087266, 0.087266, 0.001523, 0.785398, 0.087266, 0.001523, 0.785398, 0.000000, 0.174533, 0.191986, -0.174533, 0.261799, 0.174533, 0.000000, 0.495201, -0.087812, -0.229404, 0.865402, 0.141591, 512.495, 511.857, 512.076, 490.648, 495.854, 637.399, 6.224
0.000000, -0.087266, 0.087266, 0.001523, 0.785398, 0.087266, 0.001523, 0.785398, 0.000000, 0.174533, 0.191986, -0.174533, 0.261799, 0.174533, 0.000000, 0.495211, -0.089981, -0.235019, 0.865428, 0.145037, 512.593, 511.933, 512.105, 490.411, 496.14, 637.378, 6.24
0.000000, -0.087266, 0.087266, 0.001523, 0.785398, 0.087266, 0.001523, 0.785398, 0.000000, 0.174533, 0.191986, -0.174533, 0.261799, 0.174533, 0.000000, 0.495221, -0.092253, -0.240805, 0.865455, 0.148551, 512.682, 511.998, 512.126, 490.171, 496.423, 637.351, 6.256
0.000000, -0.087266, 0.087266, 0.001523, 0.785398, 0.087266, 0.001523, 0.785398, 0.000000, 0.174533, 0.191986, -0.174533, 0.261799, 0.174533, 0.000000, 0.495233, -0.094834, -0.247104, 0.865486, 0.152269, 512.762, 512.053, 512.149, 489.918, 496.722, 637.32, 6.272
0.000000, -0.087266, 0.087266, 0.001523, 0.785398, 0.087266, 0.001523, 0.785398, 0.000000, 0.174533, 0.191986, -0.174533, 0.261799, 0.174533, 0.000000, 0.495245, -0.097415, -0.253403, 0.865517, 0.155988, 512.833, 512.098, 512.164, 489.649, 497.036, 637.299, 6.288
0.000000, -0.087266, 0.087266, 0.001523, 0.785398, 0.087266, 0.001523, 0.785398, 0.000000, 0.174533, 0.191986, -0.174533, 0.261799, 0.174533, 0.000000, 0.495258, -0.100048, -0.259788, 0.865549, 0.159740, 512.895, 512.131, 512.179, 489.388, 497.365, 637.271, 6.304
0.000000, -0.087266, 0.087266, 0.001523, 0.785398, 0.087266, 0.001523, 0.785398, 0.000000, 0.174533, 0.191986, -0.174533, 0.261799, 0.174533, 0.000000, 0.495272, -0.103049, -0.266776, 0.865585, 0.163726, 512.948, 512.155, 512.194, 489.159, 497.681, 637.239, 6.32
0.000000, -0.087266, 0.087266, 0.001523, 0.785398, 0.087266, 0.001523, 0.785398, 0.000000, 0.174533, 0.191986, -0.174533, 0.261799, 0.174533, 0.000000, 0.495287, -0.106051, -0.273763, 0.865622, 0.167712, 512.991, 512.171, 512.201, 488.924, 498.011, 637.225, 6.336
0.000000, -0.087266, 0.087266, 0.001523, 0.785398, 0.087266, 0.001523, 0.785398, 0.000000, 0.174533, 0.191986, -0.174533, 0.261799, 0.174533, 0.000000, 0.495301, -0.109052, -0.280751, 0.865659, 0.171698, 513.026, 512.178, 512.211, 488.707, 498.358, 637.204, 6.352
0.000000, -0.087266, 0.087266, 0.001523, 0.785398, 0.087266, 0.001523, 0.785398, 0.000000, 0.174533, 0.191986, -0.174533, 0.261799, 0.174533, 0.000000, 0.495318, -0.112478, -0.288419, 0.865703, 0.175941, 513.052, 512.179, 512.213, 488.553, 498.66, 637.179, 6.368
0.000000, -0.087266, 0.087266, 0.001523, 0.785398, 0.087266, 0.001523, 0.785398, 0.000000, 0.174533, 0.191986, -0.174533, 0.261799, 0.174533, 0.000000, 0.495335, -0.115904, -0.296088, 0.865746, 0.180183, 513.069, 512.174, 512.215, 488.377, 498.999, 637.174, 6.384
0.000000, -0.087266, 0.087266, 0.001523, 0.785398, 0.087266, 0.001523, 0.785398, 0.000000, 0.174533, 0.191986, -0.174533, 0.261799, 0.174533, 0.000000, 0.495352, -0.119331, -0.303756, 0.865790, 0.184426, 513.078, 512.164, 512.219, 488.238, 499.333, 637.163, 6.4
0.000000, -0.087266, 0.087266, 0.001523, 0.785398, 0.087266, 0.001523, 0.785398, 0.000000, 0.174533, 0.191986, -0.174533, 0.261799, 0.174533, 0.000000, 0.495371, -0.123127, -0.312010, 0.865840, 0.188883, 513.079, 512.15, 512.215, 488.157, 499.621, 637.149, 6.416
0.000000, -0.087266, 0.087266, 0.001523, 0.785398, 0.087266, 0.001523, 0.785398, 0.000000, 0.174533, 0.191986, -0.174533, 0.261799, 0.174533, 0.000000, 0.495391, -0.126976, -0.320347, 0.865891, 0.193370, 513.073, 512.133, 512.214, 488.058, 499.939, 637.151, 6.432
0.000000, -0.087266, 0.087266, 0.001523, 0.785398, 0.087266, 0.001523, 0.785398, 0.000000, 0.174533, 0.191986, -0.174533, 0.261799, 0.174533, 0.000000, 0.495411, -0.130825, -0.328684, 0.865942, 0.197858, 513.058, 512.115, 512.207, 487.999, 500.233, 637.152, 6.448
0.000000, -0.087266, 0.087266, 0.001523, 0.785398, 0.087266, 0.001523, 0.785398, 0.000000, 0.174533, 0.191986, -0.174533, 0.261799, 0.174533, 0.000000, 0.495434, -0.134987, -0.337509, 0.866000, 0.202520, 513.038, 512.095, 512.201, 487.972, 500.504, 637.146, 6.464
0.000000, -0.087266, 0.087266, 0.001523, 0.785398, 0.087266, 0.001523, 0.785398, 0.000000, 0.174533, 0.191986, -0.174533, 0.261799, 0.174533, 0.000000, 0.495457, -0.139255, -0.346496, 0.866060, 0.207241, 513.01, 512.075, 512.197, 487.944, 500.778, 637.154, 6.48
0.000000, -0.087266, 0.087266, 0.001523, 0.785398, 0.087266, 0.001523, 0.785398, 0.000000, 0.174533, 0.191986, -0.174533, 0.261799, 0.174533, 0.000000, 0.495480, -0.143522, -0.355484, 0.866120, 0.211961, 512.977, 512.056, 512.186, 487.94, 501.031, 637.163, 6.496
0.000000, -0.087266, 0.087266, 0.001523, 0.785398, 0.087266, 0.001523, 0.785398, 0.000000, 0.174533, 0.191986, -0.174533, 0.261799, 0.174533, 0.000000, 0.495546, -0.137453, -0.373034, 0.866288, 0.235580, 512.928, 512.06, 512.166, 487.647, 501.486, 637.189, 6.512
0.000000, -0.087266, 0.087266, 0.001523, 0.785398, 0.087266, 0.001523, 0.785398, 0.000000, 0.174533, 0.191986, -0.174533, 0.261799, 0.174533, 0.000000, 0.495574, 0.062356, 0.177391, 0.866360, 0.246504, 512.844, 512.372, 512.083, 488.346, 502.108, 637.519, 6.528
0.000000, -0.087266, 0.087266, 0.001523, 0.785398, 0.087266, 0.001523, 0.785398, 0.000000, 0.174533, 0.191986, -0.174533, 0.261799, 0.174533, 0.000000, 0.495484, 0.128533, 0.351425, 0.866129, 0.222890, 512.71, 514.003, 511.716, 490.487, 503.654, 637.238, 6.544
0.000000, -0.087266, 0.087266, 0.001523, 0.785398, 0.087266, 0.001523, 0.785398, 0.000000, 0.174533, 0.191986, -0.174533, 0.261799, 0.174533, 0.000000, 0.495385, 0.129005, 0.318595, 0.865875, 0.189590, 512.546, 516.737, 509.499, 473.386, 504.09, 632.114, 6.56
0.000000, -0.087266, 0.087266, 0.001523, 0.785398, 0.087266, 0.001523, 0.785398, 0.000000, 0.174533, 0.191986, -0.174533, 0.261799, 0.174533, 0.000000, 0.495311, 0.136955, 0.290959, 0.865687, 0.154004, 512.419, 519.24, 508.149, 476.195, 502.878, 630.982, 6.576
0.000000, -0.087266, 0.087266, 0.001523, 0.785398, 0.087266, 0.001523, 0.785398, 0.000000, 0.174533, 0.191986, -0.174533, 0.261799, 0.174533, 0.000000, 0.495262, 0.149499, 0.265426, 0.865560, 0.115926, 513.894, 517.849, 507.726, 506.232, 506.552, 645.109, 6.592
0.000000, -0.087266, 0.087266, 0.001523, 0.785398, 0.087266, 0.001523, 0.785398, 0.000000, 0.174533, 0.191986, -0.174533, 0.261799, 0.174533, 0.000000, 0.495235, 0.163577, 0.238445, 0.865493, 0.074867, 513.51, 515.016, 507.566, 518.268, 497.909, 637.006, 6.608
0.000000, -0.087266, 0.087266, 0.001523, 0.785398, 0.087266, 0.001523, 0.785398, 0.000000, 0.174533, 0.191986, -0.174533, 0.261799, 0.174533, 0.000000, 0.495229, 0.176184, 0.207091, 0.865476, 0.032672, 514.046, 513.891, 507.679, 505.998, 502.249, 638.25, 6.624
0.000000, -0.087266, 0.087266, 0.001523, 0.785398, 0.087266, 0.001523, 0.785398, 0.000000, 0.174533, 0.191986, -0.174533, 0.261799, 0.174533, 0.000000, 0.495242, 0.184947, 0.169291, 0.865507, 0.015655, 513.808, 513.473, 508.125, 470.579, 498.669, 637.449, 6.64
0.000000, -0.087266, 0.087266, 0.001523, 0.785398, 0.087266, 0.001523, 0.785398, 0.000000, 0.174533, 0.191986, -0.174533, 0.261799, 0.174533, 0.000000, 0.495270, 0.403611, 0.096069, 0.865597, 0.064100, 513.592, 512.854, 511.124, 473.145, 504.559, 637.02, 6.656
0.000000, -0.087266, 0.087266, 0.001523, 0.785398, 0.087266, 0.001523, 0.785398, 0.000000, 0.171407, 0.199801, -0.184953, 0.257892, 0.178440, 0.000000, 0.488426, 0.991244, -0.028231, 0.852791, 0.103004, 513.256, 512.886, 512.271, 477.328, 497.543, 636.22, 6.672
0.000000, -0.087266, 0.087266, 0.001523, 0.785398, 0.087266, 0.001523, 0.785398, 0.000000, 0.161404, 0.224809, -0.218296, 0.245388, 0.190944, 0.000000, 0.466438, 0.977879, -0.069174, 0.811443, 0.119166, 512.854, 513.742, 512.382, 477.664, 483.501, 635.343, 6.688
0.000000, -0.087266, 0.087266, 0.001523, 0.785398, 0.087266, 0.001523, 0.785398, 0.000000, 0.151401, 0.249816, -0.251640, 0.232884, 0.203448, 0.000000, 0.444449, 0.964514, -0.110116, 0.770096, 0.135327, 512.514, 514.44, 512.473, 477.634, 484.873, 636.187, 6.704
0.000000, -0.087266, 0.087266, 0.001523, 0.785398, 0.087266, 0.001523, 0.785398, 0.000000, 0.141398, 0.274824, -0.284984, 0.220380, 0.215952, 0.000000, 0.422460, 0.951148, -0.151058, 0.728749, 0.151488, 512.249, 514.982, 512.623, 477.686, 483.91, 634.998, 6.72
0.000000, -0.087266, 0.087266, 0.001523, 0.785398, 0.087266, 0.001523, 0.785398, 0.000000, 0.131395, 0.299832, -0.318327, 0.207876, 0.228456, 0.000000, 0.400471, 0.937783, -0.192000, 0.687401, 0.167650, 511.448, 515.406, 513.307, 479.882, 483.333, 636, 6.736
0.000000, -0.087266, 0.087266, 0.001523, 0.785398, 0.087266, 0.001523, 0.785398, 0.000000, 0.121392, 0.324839, -0.351671, 0.195372, 0.240960, 0.000000, 0.378482, 0.924418, -0.232943, 0.646054, 0.183811, 510.579, 515.822, 514.004, 480.58, 483.542, 635.148, 6.752
0.000000, -0.087266, 0.087266, 0.001523, 0.785398, 0.087266, 0.001523, 0.785398, 0.000000, 0.111389, 0.349847, -0.385015, 0.182869, 0.253463, 0.000000, 0.356493, 0.911053, -0.273885, 0.604706, 0.199972, 510.356, 516.144, 514.833, 478.973, 486.652, 632.194, 6.768
0.000000, -0.087266, 0.087266, 0.001523, 0.785398, 0.087266, 0.001523, 0.785398, 0.000000, 0.101385, 0.374855, -0.418358, 0.170365, 0.265967, 0.000000, 0.334505, 0.897687, -0.314827, 0.563359, 0.216134, 509.501, 516.22, 515.388, 475.73, 484.009, 633.344, 6.784
0.000000, -0.087266, 0.087266, 0.001523, 0.785398, 0.087266, 0.001523, 0.785398, 0.000000, 0.091382, 0.399863, -0.451702, 0.157861, 0.278471, 0.000000, 0.312516, 0.884322, -0.355769, 0.522011, 0.232295, 509.351, 512.476, 517.841, 501.821, 494.217, 644.116, 6.8
0.000000, -0.087266, 0.087266, 0.001523, 0.785398, 0.087266, 0.001523, 0.785398, 0.000000, 0.081379, 0.424870, -0.485045, 0.145357, 0.290975, 0.000000, 0.290527, 0.870957, -0.396712, 0.480664, 0.248456, 509.492, 510.015, 520.215, 492.12, 498.257, 636.161, 6.816
0.000000, -0.087266, 0.087266, 0.001523, 0.785398, 0.087266, 0.001523, 0.785398, 0.000000, 0.071376, 0.449878, -0.518389, 0.132853, 0.303479, 0.000000, 0.268538, 0.857591, -0.437654, 0.439317, 0.264618, 509.606, 508.564, 519.62, 485.933, 494.377, 631.332, 6.832
0.000000, -0.087266, 0.087266, 0.001523, 0.785398, 0.087266, 0.001523, 0.785398, 0.000000, 0.061373, 0.474886, -0.551733, 0.120349, 0.315983, 0.000000, 0.246549, 0.844226, -0.478596, 0.397969, 0.280779, 509.869, 509.967, 519.361, 461.673, 493.076, 602.908, 6.848
0.000000, -0.087266, 0.087266, 0.001523, 0.785398, 0.087266, 0.001523, 0.785398, 0.000000, 0.051370, 0.499893, -0.585076, 0.107846, 0.328486, 0.000000, 0.224560, 0.830861, -0.519538, 0.356622, 0.296940, 509.957, 511.95, 518.849, 464.222, 491.958, 638.932, 6.864
0.000000, -0.087266, 0.087266, 0.001523, 0.785398, 0.087266, 0.001523, 0.785398, 0.000000, 0.041367, 0.524901, -0.618420, 0.095342, 0.340990, 0.000000, 0.202572, 0.817495, -0.560480, 0.315274, 0.313102, 510.222, 513.987, 517.679, 471.796, 488.96, 625.923, 6.88
0.000000, -0.087266, 0.087266, 0.001523, 0.785398, 0.087266, 0.001523, 0.785398, 0.000000, 0.031364, 0.549909, -0.651764, 0.082838, 0.353494, 0.000000, 0.180583, 0.804130, -0.601423, 0.273927, 0.329263, 510.558, 516.037, 516.392, 474.747, 488.117, 622.906, 6.896
0.000000, -0.087266, 0.087266, 0.001523, 0.785398, 0.087266, 0.001523, 0.785398, 0.000000, 0.021361, 0.574917, -0.685107, 0.070334, 0.365998, 0.000000, 0.158594, 0.790765, -0.642365, 0.232579, 0.345424, 510.948, 516.569, 515.233, 480.491, 487.978, 625.731, 6.912
0.000000, -0.087266, 0.087266, 0.001523, 0.785398, 0.087266, 0.001523, 0.785398, 0.000000, 0.011358, 0.599924, -0.718451, 0.057830, 0.378502, 0.000000, 0.136605, 0.777400, -0.683307, 0.191232, 0.361586, 511.55, 516.46, 514.908, 481.674, 491.695, 626.836, 6.928
0.000000, -0.087266, 0.087266, 0.001523, 0.785398, 0.087266, 0.001523, 0.785398, 0.000000, 0.001355, 0.624932, -0.751794, 0.045326, 0.391006, 0.000000, 0.114616, 0.764034, -0.724249, 0.149884, 0.377747, 512.389, 516.828, 514.385, 479.097, 488.498, 624.449, 6.944
0.000000, -0.087266, 0.087266, 0.001523, 0.785398, 0.087266, 0.001523, 0.785398, 0.000000, -0.008649, 0.649940, -0.785138, 0.032823, 0.403509, 0.000000, 0.092627, 0.750669, -0.765192, 0.108537, 0.393908, 513.299, 517.202, 513.84, 479.41, 488.502, 624.217, 6.96
0.000000, -0.087266, 0.087266, 0.001523, 0.785398, 0.087266, 0.001523, 0.785398, 0.000000, -0.018652, 0.674947, -0.818482, 0.020319, 0.416013, 0.000000, 0.070638, 0.737304, -0.806134, 0.067190, 0.410070, 514.106, 518.061, 513.852, 477.294, 487.388, 621.566, 6.976
0.000000, -0.087266, 0.087266, 0.001523, 0.785398, 0.087266, 0.001523, 0.785398, 0.000000, -0.028655, 0.699955, -0.851825, 0.007815, 0.428517, 0.000000, 0.048650, 0.723938, -0.847076, 0.025842, 0.426231, 514.746, 518.591, 514.246, 478.107, 488.586, 623.771, 6.992
0.000000, -0.087266, 0.087266, 0.001523, 0.785398, 0.087266, 0.001523, 0.785398, 0.000000, -0.034907, 0.715585, -0.872665, 0.000000, 0.436332, 0.000000, 0.034907, 0.715585, -0.872665, 0.000000, 0.436332, 515.257, 518.378, 514.496, 477.391, 503.03, 633.343, 7.008
0.000000, -0.087266, 0.087266, 0.001523, 0.785398, 0.087266, 0.001523, 0.785398, 0.000000, -0.034907, 0.715585, -0.872665, 0.000000, 0.436332, 0.000000, 0.034907, 0.715585, -0.872665, 0.000000, 0.436332, 516.449, 517.755, 514.677, 486.686, 504.719, 638.081, 7.024
0.000000, -0.087266, 0.087266, 0.001523, 0.785398, 0.087266, 0.001523, 0.785398, 0.000000, -0.034907, 0.715585, -0.872665, 0.000000, 0.436332, 0.000000, 0.034907, 0.715585, -0.872665, 0.000000, 0.436332, 515.59, 516.076, 514.95, 483.265, 505.568, 652.626, 7.04
0.000000, -0.087266, 0.087266, 0.001523, 0.785398, 0.087266, 0.001523, 0.785398, 0.000000, -0.034907, 0.715585, -0.872665, 0.000000, 0.436332, 0.000000, 0.034907, 0.715585, -0.872665, 0.000000, 0.436332, 515.788, 515.935, 515.14, 480.325, 503.564, 633.766, 7.056
0.000000, -0.087266, 0.087266, 0.001523, 0.785398, 0.087266, 0.001523, 0.785398, 0.000000, -0.034907, 0.715585, -0.872665, 0.000000, 0.436332, 0.000000, 0.034907, 0.715585, -0.872665, 0.000000, 0.436332, 516.979, 513.296, 515.282, 486.697, 501.6, 646.208, 7.072
0.000000, -0.087266, 0.087266, 0.001523, 0.785398, 0.087266, 0.001523, 0.785398, 0.000000, -0.034907, 0.715585, -0.872665, 0.000000, 0.436332, 0.000000, 0.034907, 0.715585, -0.872665, 0.000000, 0.436332, 518.187, 512.401, 515.378, 482.248, 503.109, 650.166, 7.088
0.000000, -0.087266, 0.087266, 0.001523, 0.785398, 0.087266, 0.001523, 0.785398, 0.000000, -0.034907, 0.715585, -0.872665, 0.000000, 0.436332, 0.000000, 0.034907, 0.715585, -0.872665, 0.000000, 0.436332, 519.271, 512.196, 515.463, 483.053, 502.479, 640.193, 7.104
0.000000, -0.087266, 0.087266, 0.001523, 0.785398, 0.087266, 0.001523, 0.785398, 0.000000, -0.034907, 0.715585, -0.872665, 0.000000, 0.436332, 0.000000, 0.034907, 0.715585, -0.872665, 0.000000, 0.436332, 521.057, 512.035, 515.489, 481.815, 503.617, 637.39, 7.12
0.000000, -0.087266, 0.087266, 0.001523, 0.785398, 0.087266, 0.001523, 0.785398, 0.000000, -0.034907, 0.715585, -0.872665, 0.000000, 0.436332, 0.000000, 0.034907, 0.715585, -0.872665, 0.000000, 0.436332, 522.54, 511.906, 515.559, 480.916, 502.739, 639.567, 7.136
0.000000, -0.087266, 0.087266, 0.001523, 0.785398, 0.087266, 0.001523, 0.785398, 0.000000, -0.034907, 0.715585, -0.872665, 0.000000, 0.436332, 0.000000, 0.034907, 0.715585, -0.872665, 0.000000, 0.436332, 523.671, 511.817, 515.687, 480.391, 502.074, 639.651, 7.152
0.000000, -0.087266, 0.087266, 0.001523, 0.785398, 0.087266, 0.001523, 0.785398, 0.000000, -0.034907, 0.715585, -0.872665, 0.000000, 0.436332, 0.000000, 0.034907, 0.715585, -0.872665, 0.000000, 0.436332, 520.455, 511.372, 514.282, 471.538, 537.541, 675.597, 7.168
0.000000, -0.087266, 0.087266, 0.001523, 0.785398, 0.087266, 0.001523, 0.785398, 0.000000, -0.034907, 0.715585, -0.872665, 0.000000, 0.436332, 0.000000, 0.034907, 0.715585, -0.872665, 0.000000, 0.436332, 520.137, 510.662, 514.175, 492.825, 525.903, 635.322, 7.184
0.000000, -0.087266, 0.087266, 0.001523, 0.785398, 0.087266, 0.001523, 0.785398, 0.000000, -0.034907, 0.715585, -0.872665, 0.000000, 0.436332, 0.000000, 0.034907, 0.715585, -0.872665, 0.000000, 0.436332, 519.84, 510.395, 514.231, 480.06, 539.908, 653.737, 7.2
0.000000, -0.087266, 0.087266, 0.001523, 0.785398, 0.087266, 0.001523, 0.785398, 0.000000, -0.034907, 0.715585, -0.872665, 0.000000, 0.436332, 0.000000, 0.034907, 0.715585, -0.872665, 0.000000, 0.436332, 519.117, 510.789, 513.781, 483.29, 530.932, 633.97, 7.216
0.000000, -0.087266, 0.087266, 0.001523, 0.785398, 0.087266, 0.001523, 0.785398, 0.000000, -0.034907, 0.715585, -0.872665, 0.000000, 0.436332, 0.000000, 0.034907, 0.715585, -0.872665, 0.000000, 0.436332, 518.39, 510.099, 513.45, 486.819, 530.566, 639.327, 7.232
0.000000, -0.087266, 0.087266, 0.001523, 0.785398, 0.087266, 0.001523, 0.785398, 0.000000, -0.034907, 0.715585, -0.872665, 0.000000, 0.436332, 0.000000, 0.034907, 0.715585, -0.872665, 0.000000, 0.436332, 517.025, 510.394, 513.021, 477.828, 528.045, 628.756, 7.248
0.000000, -0.087266, 0.087266, 0.001523, 0.785398, 0.087266, 0.001523, 0.785398, 0.000000, -0.034907, 0.715585, -0.872665, 0.000000, 0.436332, 0.000000, 0.034907, 0.715585, -0.872665, 0.000000, 0.436332, 516.015, 510.784, 512.621, 477.521, 533.095, 633.653, 7.264
0.000000, -0.087266, 0.087266, 0.001523, 0.785398, 0.087266, 0.001523, 0.785398, 0.000000, -0.034907, 0.715585, -0.872665, 0.000000, 0.436332, 0.000000, 0.034907, 0.715585, -0.872665, 0.000000, 0.436332, 516.693, 510.983, 512.19, 479.342, 517.528, 639.165, 7.28
0.000000, -0.087266, 0.087266, 0.001523, 0.785398, 0.087266, 0.001523, 0.785398, 0.000000, -0.034907, 0.715585, -0.872665, 0.000000, 0.436332, 0.000000, 0.034907, 0.715585, -0.872665, 0.000000, 0.436332, 516.521, 511.233, 511.75, 479.286, 519.079, 637.272, 7.296
