neck_yaw, neck_pitch, left_shoulder_pitch [shoulder], left_shoulder_roll, left_elbow, right_shoulder_pitch [shoulder], right_shoulder_roll, right_elbow, left_hip_yaw [hip], left_hip_roll, left_hip_pitch, left_knee, left_ankle_roll, left_ankle_pitch, right_hip_yaw [hip], right_hip_roll, right_hip_pitch, right_knee, right_ankle_roll, right_ankle_pitch, gyro_x, gyro_y, gyro_z, acc_x, acc_y,acc_z
0,-0.087266,0.087266,0.001523,0.785398,0.087266,0.001523,0.785398,0,-0.034907,0.715585,-0.872665,0,0.436332,0,0.034907,0.715585,-0.872665,0,0.436332,512.008,512.07,512.219,520.453,512.871,513.948
0,-0.087266,0.087266,0.001523,0.785398,0.087266,0.001523,0.785398,0,-0.034907,0.715585,-0.872665,0,0.436332,0,0.034907,0.715585,-0.872665,0,0.436332,511.24,514.847,511.718,455.698,527.92,983.179
0,-0.087266,0.087266,0.001523,0.785398,0.087266,0.001523,0.785398,0,-0.034907,0.715585,-0.872665,0,0.436332,0,0.034907,0.715585,-0.872665,0,0.436332,510.953,515.183,511.933,507.65,509.889,489.912
0,-0.087266,0.087266,0.001523,0.785398,0.087266,0.001523,0.785398,0,-0.034907,0.715585,-0.872665,0,0.436332,0,0.034907,0.715585,-0.872665,0,0.436332,511.121,518.671,512.395,490.136,506.98,534.229
0,-0.087266,0.087266,0.001523,0.785398,0.087266,0.001523,0.785398,0,-0.034907,0.715585,-0.872665,0,0.436332,0,0.034907,0.715585,-0.872665,0,0.436332,510.665,521.076,512.874,494.577,494.925,603.757
0,-0.087266,0.087266,0.001523,0.785398,0.087266,0.001523,0.785398,0,-0.034907,0.715585,-0.872665,0,0.436332,0,0.034907,0.715585,-0.872665,0,0.436332,511.524,524.535,512.715,510.664,500.753,634.222
0,-0.087266,0.087266,0.001523,0.785398,0.087266,0.001523,0.785398,0,-0.034907,0.715585,-0.872665,0,0.436332,0,0.034907,0.715585,-0.872665,0,0.436332,511.568,526.144,512.67,526.677,492.699,647.571
0,-0.087266,0.087266,0.001523,0.785398,0.087266,0.001523,0.785398,0,-0.034907,0.715585,-0.872665,0,0.436332,0,0.034907,0.715585,-0.872665,0,0.436332,512.36,525.989,512.471,523.48,499.391,656.407
0,-0.087266,0.087266,0.001523,0.785398,0.087266,0.001523,0.785398,0,-0.034907,0.715585,-0.872665,0,0.436332,0,0.034907,0.715585,-0.872665,0,0.436332,513.244,525.864,512.253,521.555,506.364,659.768
0,-0.087266,0.087266,0.001523,0.785398,0.087266,0.001523,0.785398,0,-0.034907,0.715585,-0.872665,0,0.436332,0,0.034907,0.715585,-0.872665,0,0.436332,513.929,525.808,511.917,519.526,509.266,660.578
0,-0.087266,0.087266,0.001523,0.785398,0.087266,0.001523,0.785398,0,-0.034907,0.715585,-0.872665,0,0.436332,0,0.034907,0.715585,-0.872665,0,0.436332,514.404,525.721,511.95,514.013,511.087,658.219
0,-0.087266,0.087266,0.001523,0.785398,0.087266,0.001523,0.785398,0,-0.034907,0.715585,-0.872665,0,0.436332,0,0.034907,0.715585,-0.872665,0,0.436332,514.712,525.66,512.049,511.81,511.425,656.572
0,-0.087266,0.087266,0.001523,0.785398,0.087266,0.001523,0.785398,0,-0.034907,0.715585,-0.872665,0,0.436332,0,0.034907,0.715585,-0.872665,0,0.436332,514.991,525.747,512.109,509.011,527.795,654.023
0,-0.087266,0.087266,0.001523,0.785398,0.087266,0.001523,0.785398,0,-0.034907,0.715585,-0.872665,0,0.436332,0,0.034907,0.715585,-0.872665,0,0.436332,515.027,525.801,512.111,503.941,516.602,652.194
0,-0.087266,0.087266,0.001523,0.785398,0.087266,0.001523,0.785398,0,-0.034907,0.715585,-0.872665,0,0.436332,0,0.034907,0.715585,-0.872665,0,0.436332,514.948,525.812,512.115,500.606,514.809,650.2
0,-0.087266,0.087266,0.001523,0.785398,0.087266,0.001523,0.785398,0,-0.034907,0.715585,-0.872665,0,0.436332,0,0.034907,0.715585,-0.872665,0,0.436332,514.863,525.867,512.091,500.205,517.891,648.912
0,-0.087266,0.087266,0.001523,0.785398,0.087266,0.001523,0.785398,0,-0.034907,0.715585,-0.872665,0,0.436332,0,0.034907,0.715585,-0.872665,0,0.436332,514.75,525.967,512.067,499.344,518.236,647.25
0,-0.087266,0.087266,0.001523,0.785398,0.087266,0.001523,0.785398,0,-0.034907,0.715585,-0.872665,0,0.436332,0,0.034907,0.715585,-0.872665,0,0.436332,514.62,526.064,512.101,498.68,518.356,646.023
0,-0.087266,0.087266,0.001523,0.785398,0.087266,0.001523,0.785398,0,-0.034907,0.715585,-0.872665,0,0.436332,0,0.034907,0.715585,-0.872665,0,0.436332,514.387,526.176,512.145,496.392,517.558,644.382
0,-0.087266,0.087266,0.001523,0.785398,0.087266,0.001523,0.785398,0,-0.034907,0.715585,-0.872665,0,0.436332,0,0.034907,0.715585,-0.872665,0,0.436332,513.723,525.122,512.417,501.998,513.183,644.446
0,-0.087266,0.087266,0.001523,0.785398,0.087266,0.001523,0.785398,0,-0.034907,0.715585,-0.872665,0,0.436332,0,0.034907,0.715585,-0.872665,0,0.436332,512.821,521.696,512.07,511.795,518.205,661.661
0,-0.087266,0.087266,0.001523,0.785398,0.087266,0.001523,0.785398,0,-0.034907,0.715585,-0.872665,0,0.436332,0,0.034907,0.715585,-0.872665,0,0.436332,512.475,520.65,512.111,493.936,518.058,641.194
0,-0.087266,0.087266,0.001523,0.785398,0.087266,0.001523,0.785398,0,-0.034907,0.715585,-0.872665,0,0.436332,0,0.034907,0.715585,-0.872665,0,0.436332,511.284,519.748,511.878,466.15,517.384,640.752
0,-0.087266,0.087266,0.001523,0.785398,0.087266,0.001523,0.785398,0,-0.034907,0.715585,-0.872665,0,0.436332,0,0.034907,0.715585,-0.872665,0,0.436332,510.063,518.864,511.629,468.446,515.98,635.594
0,-0.087266,0.087266,0.001523,0.785398,0.087266,0.001523,0.785398,0,-0.034907,0.715585,-0.872665,0,0.436332,0,0.034907,0.715585,-0.872665,0,0.436332,509.679,518.175,512.019,445.482,517.017,632.337
0,-0.087266,0.087266,0.001523,0.785398,0.087266,0.001523,0.785398,0,-0.034907,0.715585,-0.872665,0,0.436332,0,0.034907,0.715585,-0.872665,0,0.436332,509.886,517.053,512.174,465.749,519.797,632.257
0,-0.087266,0.087266,0.001523,0.785398,0.087266,0.001523,0.785398,0,-0.034907,0.715585,-0.872665,0,0.436332,0,0.034907,0.715585,-0.872665,0,0.436332,510.068,516.029,512.27,468.849,518.935,634.145
0,-0.087266,0.087266,0.001523,0.785398,0.087266,0.001523,0.785398,0,-0.034907,0.715585,-0.872665,0,0.436332,0,0.034907,0.715585,-0.872665,0,0.436332,510.207,515.106,512.369,468.812,518.052,634.087
0,-0.087266,0.087266,0.001523,0.785398,0.087266,0.001523,0.785398,0,-0.034907,0.715585,-0.872665,0,0.436332,0,0.034907,0.715585,-0.872665,0,0.436332,510.325,514.261,512.482,469.211,517.285,634.069
0,-0.087266,0.087266,0.001523,0.785398,0.087266,0.001523,0.785398,0,-0.034907,0.715585,-0.872665,0,0.436332,0,0.034907,0.715585,-0.872665,0,0.436332,510.426,513.491,512.612,469.942,516.5,634.116
0,-0.087266,0.087266,0.001523,0.785398,0.087266,0.001523,0.785398,0,-0.034907,0.715585,-0.872665,0,0.436332,0,0.034907,0.715585,-0.872665,0,0.436332,510.575,512.771,512.806,471.664,514.501,634.076
0,-0.087266,0.087266,0.001523,0.785398,0.087266,0.001523,0.785398,0,-0.034907,0.715585,-0.872665,0,0.436332,0,0.034907,0.715585,-0.872665,0,0.436332,510.807,512.274,513.503,471.514,515.896,634.79
0,-0.087266,0.087266,0.001523,0.785398,0.087266,0.001523,0.785398,0,-0.034907,0.715585,-0.872665,0,0.436332,0,0.034907,0.715585,-0.872665,0,0.436332,510.8,511.952,513.659,473.546,512.666,634.908
0,-0.087266,0.087266,0.001523,0.785398,0.087266,0.001523,0.785398,0,-0.034907,0.715585,-0.872665,0,0.436332,0,0.034907,0.715585,-0.872665,0,0.436332,510.932,511.712,513.748,475.287,512.687,635.525
0,-0.087266,0.087266,0.001523,0.785398,0.087266,0.001523,0.785398,0,-0.034907,0.715585,-0.872665,0,0.436332,0,0.034907,0.715585,-0.872665,0,0.436332,511.188,511.342,512.005,479.346,508.308,636.052
0,-0.087266,0.087266,0.001523,0.785398,0.087266,0.001523,0.785398,0,-0.034907,0.715585,-0.872665,0,0.436332,0,0.034907,0.715585,-0.872665,0,0.436332,511.561,511.219,511.948,478.275,512.329,636.685
0,-0.087266,0.087266,0.001523,0.785398,0.087266,0.001523,0.785398,0,-0.034907,0.715585,-0.872665,0,0.436332,0,0.034907,0.715585,-0.872665,0,0.436332,511.83,511.148,511.942,479.567,511.864,636.685
0,-0.087266,0.087266,0.001523,0.785398,0.087266,0.001523,0.785398,0,-0.034907,0.715585,-0.872665,0,0.436332,0,0.034907,0.715585,-0.872665,0,0.436332,511.883,511.145,511.961,480.997,511.574,636.884
0,-0.087266,0.087266,0.001523,0.785398,0.087266,0.001523,0.785398,0,-0.034907,0.715585,-0.872665,0,0.436332,0,0.034907,0.715585,-0.872665,0,0.436332,511.907,511.2,511.97,482.274,512.074,637.139
0,-0.087266,0.087266,0.001523,0.785398,0.087266,0.001523,0.785398,0,-0.034907,0.715585,-0.872665,0,0.436332,0,0.034907,0.715585,-0.872665,0,0.436332,511.93,511.271,511.978,482.809,512.169,636.956
0,-0.087266,0.087266,0.001523,0.785398,0.087266,0.001523,0.785398,0,-0.034907,0.715585,-0.872665,0,0.436332,0,0.034907,0.715585,-0.872665,0,0.436332,511.952,511.351,511.985,483.074,512.22,636.917
0,-0.087266,0.087266,0.001523,0.785398,0.087266,0.001523,0.785398,0,-0.034907,0.715585,-0.872665,0,0.436332,0,0.034907,0.715585,-0.872665,0,0.436332,511.974,511.437,511.987,483.243,512.247,636.905
0,-0.087266,0.087266,0.001523,0.785398,0.087266,0.001523,0.785398,0,-0.034907,0.715585,-0.872665,0,0.436332,0,0.034907,0.715585,-0.872665,0,0.436332,511.993,511.527,511.998,483.319,512.337,636.882
0,-0.087266,0.087266,0.001523,0.785398,0.087266,0.001523,0.785398,0,-0.034907,0.715585,-0.872665,0,0.436332,0,0.034907,0.715585,-0.872665,0,0.436332,512.009,511.618,512.014,483.339,512.396,636.857
0,-0.087266,0.087266,0.001523,0.785398,0.087266,0.001523,0.785398,0,-0.034907,0.715585,-0.872665,0,0.436332,0,0.034907,0.715585,-0.872665,0,0.436332,512.029,511.707,512.008,483.343,512.392,636.838
0,-0.087266,0.087266,0.001523,0.785398,0.087266,0.001523,0.785398,0,-0.034907,0.715585,-0.872665,0,0.436332,0,0.034907,0.715585,-0.872665,0,0.436332,512.046,511.792,512.01,483.258,512.46,636.799
0,-0.087266,0.087266,0.001523,0.785398,0.087266,0.001523,0.785398,0,-0.034907,0.715585,-0.872665,0,0.436332,0,0.034907,0.715585,-0.872665,0,0.436332,512.06,511.872,512.019,483.135,512.523,636.754
0,-0.087266,0.087266,0.001523,0.785398,0.087266,0.001523,0.785398,0,-0.034907,0.715585,-0.872665,0,0.436332,0,0.034907,0.715585,-0.872665,0,0.436332,512.072,511.941,512.023,482.925,512.58,636.709
0,-0.087266,0.087266,0.001523,0.785398,0.087266,0.001523,0.785398,0,-0.034907,0.715585,-0.872665,0,0.436332,0,0.034907,0.715585,-0.872665,0,0.436332,512.082,511.995,512.022,482.637,512.664,636.652
0,-0.087266,0.087266,0.001523,0.785398,0.087266,0.001523,0.785398,0,-0.034907,0.715585,-0.872665,0,0.436332,0,0.034907,0.715585,-0.872665,0,0.436332,512.09,512.037,512.017,482.358,512.751,636.57
0,-0.087266,0.087266,0.001523,0.785398,0.087266,0.001523,0.785398,0,-0.034907,0.715585,-0.872665,0,0.436332,0,0.034907,0.715585,-0.872665,0,0.436332,512.085,512.068,512.052,482.049,512.921,636.468
0,-0.087266,0.087266,0.001523,0.785398,0.087266,0.001523,0.785398,0,-0.034907,0.715585,-0.872665,0,0.436332,0,0.034907,0.715585,-0.872665,0,0.436332,512.093,512.088,512.022,481.9,512.84,636.441
0,-0.087266,0.087266,0.001523,0.785398,0.087266,0.001523,0.785398,0,-0.034907,0.715585,-0.872665,0,0.436332,0,0.034907,0.715585,-0.872665,0,0.436332,512.091,512.099,512.019,481.662,512.991,636.363
0,-0.087266,0.087266,0.001523,0.785398,0.087266,0.001523,0.785398,0,-0.034907,0.715585,-0.872665,0,0.436332,0,0.034907,0.715585,-0.872665,0,0.436332,512.083,512.104,512.033,481.482,513.085,636.304
0,-0.087266,0.087266,0.001523,0.785398,0.087266,0.001523,0.785398,0,-0.034907,0.715585,-0.872665,0,0.436332,0,0.034907,0.715585,-0.872665,0,0.436332,512.082,512.102,512.012,481.386,513.052,636.281
0,-0.087266,0.087266,0.001523,0.785398,0.087266,0.001523,0.785398,0,-0.034907,0.715585,-0.872665,0,0.436332,0,0.034907,0.715585,-0.872665,0,0.436332,512.075,512.096,512.021,481.251,513.167,636.237
0,-0.087266,0.087266,0.001523,0.785398,0.087266,0.001523,0.785398,0,-0.034907,0.715585,-0.872665,0,0.436332,0,0.034907,0.715585,-0.872665,0,0.436332,512.067,512.087,512.006,481.2,513.128,636.224
0,-0.087266,0.087266,0.001523,0.785398,0.087266,0.001523,0.785398,0,-0.034907,0.715585,-0.872665,0,0.436332,0,0.034907,0.715585,-0.872665,0,0.436332,512.049,512.077,512.052,481.074,513.284,636.184
0,-0.087266,0.087266,0.001523,0.785398,0.087266,0.001523,0.785398,0,-0.034907,0.715585,-0.872665,0,0.436332,0,0.034907,0.715585,-0.872665,0,0.436332,512.052,512.065,512.003,481.168,513.075,636.219
0,-0.087266,0.087266,0.001523,0.785398,0.087266,0.001523,0.785398,0,-0.034907,0.715585,-0.872665,0,0.436332,0,0.034907,0.715585,-0.872665,0,0.436332,512.043,512.053,511.998,481.097,513.207,636.192
0,-0.087266,0.087266,0.001523,0.785398,0.087266,0.001523,0.785398,0,-0.034907,0.715585,-0.872665,0,0.436332,0,0.034907,0.715585,-0.872665,0,0.436332,512.033,512.042,511.998,481.097,513.222,636.186
0,-0.087266,0.087266,0.001523,0.785398,0.087266,0.001523,0.785398,0,-0.034907,0.715585,-0.872665,0,0.436332,0,0.034907,0.715585,-0.872665,0,0.436332,512.024,512.031,511.999,481.108,513.21,636.193
0,-0.087266,0.087266,0.001523,0.785398,0.087266,0.001523,0.785398,0,-0.034907,0.715585,-0.872665,0,0.436332,0,0.034907,0.715585,-0.872665,0,0.436332,512.015,512.022,511.998,481.135,513.195,636.197
0,-0.087266,0.087266,0.001523,0.785398,0.087266,0.001523,0.785398,0,-0.034907,0.715585,-0.872665,0,0.436332,0,0.034907,0.715585,-0.872665,0,0.436332,512.009,512.014,511.994,481.165,513.166,636.207
0,-0.087266,0.087266,0.001523,0.785398,0.087266,0.001523,0.785398,0,-0.034907,0.715585,-0.872665,0,0.436332,0,0.034907,0.715585,-0.872665,0,0.436332,512.002,512.007,511.997,481.179,513.165,636.216
0,-0.087266,0.087266,0.001523,0.785398,0.087266,0.001523,0.785398,0,-0.034907,0.715585,-0.872665,0,0.436332,0,0.034907,0.715585,-0.872665,0,0.436332,511.988,512.002,512.035,481.168,513.212,636.209
0,-0.087266,0.087266,0.001523,0.785398,0.087266,0.001523,0.785398,0,-0.034907,0.715585,-0.872665,0,0.436332,0,0.034907,0.715585,-0.872665,0,0.436332,511.995,511.997,511.992,481.295,513.004,636.256
0,-0.087266,0.087266,0.001523,0.785398,0.087266,0.001523,0.785398,0,-0.034907,0.715585,-0.872665,0,0.436332,0,0.034907,0.715585,-0.872665,0,0.436332,511.992,511.994,511.992,481.263,513.102,636.242
0,-0.087266,0.087266,0.001523,0.785398,0.087266,0.001523,0.785398,0,-0.034907,0.715585,-0.872665,0,0.436332,0,0.034907,0.715585,-0.872665,0,0.436332,511.979,511.993,512.03,481.237,513.164,636.234
0,-0.087266,0.087266,0.001523,0.785398,0.087266,0.001523,0.785398,0,-0.034907,0.715585,-0.872665,0,0.436332,0,0.034907,0.715585,-0.872665,0,0.436332,511.99,511.991,511.984,481.367,512.944,636.273
0,-0.087266,0.087266,0.001523,0.785398,0.087266,0.001523,0.785398,0,-0.034907,0.715585,-0.872665,0,0.436332,0,0.034907,0.715585,-0.872665,0,0.436332,511.986,511.99,511.994,481.304,513.08,636.26
0,-0.087266,0.087266,0.001523,0.785398,0.087266,0.001523,0.785398,0,-0.034907,0.715585,-0.872665,0,0.436332,0,0.034907,0.715585,-0.872665,0,0.436332,511.986,511.99,511.984,481.347,513.016,636.263
0,-0.087266,0.087266,0.001523,0.785398,0.087266,0.001523,0.785398,0,-0.034907,0.715585,-0.872665,0,0.436332,0,0.034907,0.715585,-0.872665,0,0.436332,511.985,511.991,511.987,481.337,513.027,636.269
0,-0.087266,0.087266,0.001523,0.785398,0.087266,0.001523,0.785398,0,-0.034907,0.715585,-0.872665,0,0.436332,0,0.034907,0.715585,-0.872665,0,0.436332,511.984,511.991,511.988,481.35,513.012,636.27
0,-0.087266,0.087266,0.001523,0.785398,0.087266,0.001523,0.785398,0,-0.034907,0.715585,-0.872665,0,0.436332,0,0.034907,0.715585,-0.872665,0,0.436332,511.981,511.993,512.001,481.339,513.022,636.275
0,-0.087266,0.087266,0.001523,0.785398,0.087266,0.001523,0.785398,0,-0.034907,0.715585,-0.872665,0,0.436332,0,0.034907,0.715585,-0.872665,0,0.436332,511.985,511.994,511.994,481.366,512.961,636.28
0,-0.087266,0.087266,0.001523,0.785398,0.087266,0.001523,0.785398,0,-0.034907,0.715585,-0.872665,0,0.436332,0,0.034907,0.715585,-0.872665,0,0.436332,511.987,511.995,511.988,481.368,512.963,636.277
0,-0.087266,0.087266,0.001523,0.785398,0.087266,0.001523,0.785398,0,-0.034907,0.715585,-0.872665,0,0.436332,0,0.034907,0.715585,-0.872665,0,0.436332,511.988,511.996,511.988,481.357,512.97,636.278
0,-0.087266,0.087266,0.001523,0.785398,0.087266,0.001523,0.785398,0,-0.034907,0.715585,-0.872665,0,0.436332,0,0.034907,0.715585,-0.872665,0,0.436332,511.989,511.997,511.994,481.348,512.975,636.28
0,-0.087266,0.087266,0.001523,0.785398,0.087266,0.001523,0.785398,0,-0.034907,0.715585,-0.872665,0,0.436332,0,0.034907,0.715585,-0.872665,0,0.436332,511.987,511.998,512.006,481.342,512.991,636.279
0,-0.087266,0.087266,0.001523,0.785398,0.087266,0.001523,0.785398,0,-0.034907,0.715585,-0.872665,0,0.436332,0,0.034907,0.715585,-0.872665,0,0.436332,511.983,511.999,512.036,481.31,513.01,636.275
0,-0.087266,0.087266,0.001523,0.785398,0.087266,0.001523,0.785398,0,-0.034907,0.715585,-0.872665,0,0.436332,0,0.034907,0.715585,-0.872665,0,0.436332,511.997,511.999,511.991,481.412,512.849,636.289
0,-0.087266,0.087266,0.001523,0.785398,0.087266,0.001523,0.785398,0,-0.034907,0.715585,-0.872665,0,0.436332,0,0.034907,0.715585,-0.872665,0,0.436332,511.99,512,512.031,481.291,513.054,636.268
0,-0.087266,0.087266,0.001523,0.785398,0.087266,0.001523,0.785398,0,-0.034907,0.715585,-0.872665,0,0.436332,0,0.034907,0.715585,-0.872665,0,0.436332,512,512,511.998,481.39,512.879,636.286
0,-0.087266,0.087266,0.001523,0.785398,0.087266,0.001523,0.785398,0,-0.034907,0.715585,-0.872665,0,0.436332,0,0.034907,0.715585,-0.872665,0,0.436332,512.001,512,511.997,481.341,512.977,636.273
0,-0.087266,0.087266,0.001523,0.785398,0.087266,0.001523,0.785398,0,-0.034907,0.715585,-0.872665,0,0.436332,0,0.034907,0.715585,-0.872665,0,0.436332,512.003,512,511.989,481.351,512.966,636.269
0,-0.087266,0.087266,0.001523,0.785398,0.087266,0.001523,0.785398,0,-0.034907,0.715585,-0.872665,0,0.436332,0,0.034907,0.715585,-0.872665,0,0.436332,512.003,512,511.989,481.338,512.985,636.269
0,-0.087266,0.087266,0.001523,0.785398,0.087266,0.001523,0.785398,0,-0.034907,0.715585,-0.872665,0,0.436332,0,0.034907,0.715585,-0.872665,0,0.436332,512,512,512.002,481.322,513.016,636.271
0,-0.087266,0.087266,0.001523,0.785398,0.087266,0.001523,0.785398,0,-0.034907,0.715585,-0.872665,0,0.436332,0,0.034907,0.715585,-0.872665,0,0.436332,512.002,512,511.991,481.347,512.964,636.269
0,-0.087266,0.087266,0.001523,0.785398,0.087266,0.001523,0.785398,0,-0.034907,0.715585,-0.872665,0,0.436332,0,0.034907,0.715585,-0.872665,0,0.436332,512.002,512,511.993,481.33,512.994,636.27
0,-0.087266,0.087266,0.001523,0.785398,0.087266,0.001523,0.785398,0,-0.034907,0.715585,-0.872665,0,0.436332,0,0.034907,0.715585,-0.872665,0,0.436332,511.998,512,512.007,481.319,513.026,636.268
0,-0.087266,0.087266,0.001523,0.785398,0.087266,0.001523,0.785398,0,-0.034907,0.715585,-0.872665,0,0.436332,0,0.034907,0.715585,-0.872665,0,0.436332,512.001,512,511.999,481.346,512.968,636.271
0,-0.087266,0.087266,0.001523,0.785398,0.087266,0.001523,0.785398,0,-0.034907,0.715585,-0.872665,0,0.436332,0,0.034907,0.715585,-0.872665,0,0.436332,512.001,512,512.002,481.33,513,636.27
0,-0.087266,0.087266,0.001523,0.785398,0.087266,0.001523,0.785398,0,-0.034907,0.715585,-0.872665,0,0.436332,0,0.034907,0.715585,-0.872665,0,0.436332,512,512,512.003,481.334,513.001,636.268
0,-0.087266,0.087266,0.001523,0.785398,0.087266,0.001523,0.785398,0,-0.034907,0.715585,-0.872665,0,0.436332,0,0.034907,0.715585,-0.872665,0,0.436332,512.001,512,512.003,481.335,512.996,636.269
0,-0.087266,0.087266,0.001523,0.785398,0.087266,0.001523,0.785398,0,-0.034907,0.715585,-0.872665,0,0.436332,0,0.034907,0.715585,-0.872665,0,0.436332,512.004,512,511.993,481.346,512.973,636.27
0,-0.087266,0.087266,0.001523,0.785398,0.087266,0.001523,0.785398,0,-0.034907,0.715585,-0.872665,0,0.436332,0,0.034907,0.715585,-0.872665,0,0.436332,511.997,512,512.016,481.307,513.057,636.266
0,-0.087266,0.087266,0.001523,0.785398,0.087266,0.001523,0.785398,0,-0.034907,0.715585,-0.872665,0,0.436332,0,0.034907,0.715585,-0.872665,0,0.436332,512.002,512,511.998,481.359,512.957,636.271
0,-0.087266,0.087266,0.001523,0.785398,0.087266,0.001523,0.785398,0,-0.034907,0.715585,-0.872665,0,0.436332,0,0.034907,0.715585,-0.872665,0,0.436332,512.001,512,512.003,481.329,513.015,636.268
0,-0.087266,0.087266,0.001523,0.785398,0.087266,0.001523,0.785398,0,-0.034907,0.715585,-0.872665,0,0.436332,0,0.034907,0.715585,-0.872665,0,0.436332,512.003,512,511.994,481.346,512.988,636.266
0,-0.087266,0.087266,0.001523,0.785398,0.087266,0.001523,0.785398,0,-0.034907,0.715585,-0.872665,0,0.436332,0,0.034907,0.715585,-0.872665,0,0.436332,511.994,512,512.033,481.28,513.092,636.262
0,-0.087266,0.087266,0.001523,0.785398,0.087266,0.001523,0.785398,0,-0.034907,0.715585,-0.872665,0,0.436332,0,0.034907,0.715585,-0.872665,0,0.436332,512.004,512,511.997,481.386,512.906,636.28
0,-0.087266,0.087266,0.001523,0.785398,0.087266,0.001523,0.785398,0,-0.034907,0.715585,-0.872665,0,0.436332,0,0.034907,0.715585,-0.872665,0,0.436332,512.003,511.999,511.996,481.336,513.015,636.264
0,-0.087266,0.087266,0.001523,0.785398,0.087266,0.001523,0.785398,0,-0.034907,0.715585,-0.872665,0,0.436332,0,0.034907,0.715585,-0.872665,0,0.436332,512.002,511.999,511.996,481.336,513.013,636.266
0,-0.087266,0.087266,0.001523,0.785398,0.087266,0.001523,0.785398,0,-0.034907,0.715585,-0.872665,0,0.436332,0,0.034907,0.715585,-0.872665,0,0.436332,512.002,511.999,511.995,481.337,513.007,636.268
0,-0.087266,0.087266,0.001523,0.785398,0.087266,0.001523,0.785398,0,-0.034907,0.715585,-0.872665,0,0.436332,0,0.034907,0.715585,-0.872665,0,0.436332,512.002,511.999,511.989,481.345,512.999,636.265
0,-0.087266,0.087266,0.001523,0.785398,0.087266,0.001523,0.785398,0,-0.034907,0.715585,-0.872665,0,0.436332,0,0.034907,0.715585,-0.872665,0,0.436332,511.999,511.999,512,481.322,513.033,636.268
0,-0.087266,0.087266,0.001523,0.785398,0.087266,0.001523,0.785398,0,-0.034907,0.715585,-0.872665,0,0.436332,0,0.034907,0.715585,-0.872665,0,0.436332,511.99,512,512.033,481.294,513.072,636.264
0,-0.087266,0.087266,0.001523,0.785398,0.087266,0.001523,0.785398,0,-0.034907,0.715585,-0.872665,0,0.436332,0,0.034907,0.715585,-0.872665,0,0.436332,512.001,512,511.995,481.39,512.904,636.278
0,-0.087266,0.087266,0.001523,0.785398,0.087266,0.001523,0.785398,0,-0.034907,0.715585,-0.872665,0,0.436332,0,0.034907,0.715585,-0.872665,0,0.436332,511.999,512,511.991,481.346,513.052,636.261
0,-0.087266,0.087266,0.001523,0.785398,0.087266,0.001523,0.785398,0,-0.034907,0.715585,-0.872665,0,0.436332,0,0.034907,0.715585,-0.872665,0,0.436332,511.991,512,512.034,481.276,513.095,636.262
0,-0.087266,0.087266,0.001523,0.785398,0.087266,0.001523,0.785398,0,-0.034907,0.715585,-0.872665,0,0.436332,0,0.034907,0.715585,-0.872665,0,0.436332,512.002,511.999,511.984,481.407,512.885,636.277
0,-0.087266,0.087266,0.001523,0.785398,0.087266,0.001523,0.785398,0,-0.034907,0.715585,-0.872665,0,0.436332,0,0.034907,0.715585,-0.872665,0,0.436332,512,511.999,511.987,481.333,513.005,636.267
0,-0.087266,0.087266,0.001523,0.785398,0.087266,0.001523,0.785398,0,-0.034907,0.715585,-0.872665,0,0.436332,0,0.034907,0.715585,-0.872665,0,0.436332,511.997,512,512,481.32,513.027,636.269
0,-0.087266,0.087266,0.001523,0.785398,0.087266,0.001523,0.785398,0,-0.034907,0.715585,-0.872665,0,0.436332,0,0.034907,0.715585,-0.872665,0,0.436332,511.999,511.999,511.989,481.352,512.973,636.268
0,-0.087266,0.087266,0.001523,0.785398,0.087266,0.001523,0.785398,0,-0.034907,0.715585,-0.872665,0,0.436332,0,0.034907,0.715585,-0.872665,0,0.436332,511.999,511.999,511.991,481.334,512.998,636.269
0,-0.087266,0.087266,0.001523,0.785398,0.087266,0.001523,0.785398,0,-0.034907,0.715585,-0.872665,0,0.436332,0,0.034907,0.715585,-0.872665,0,0.436332,511.994,512,512.007,481.318,513.034,636.268
0,-0.087266,0.087266,0.001523,0.785398,0.087266,0.001523,0.785398,0,-0.034907,0.715585,-0.872665,0,0.436332,0,0.034907,0.715585,-0.872665,0,0.436332,511.997,512,511.999,481.347,512.978,636.27
0,-0.087266,0.087266,0.001523,0.785398,0.087266,0.001523,0.785398,0,-0.034907,0.715585,-0.872665,0,0.436332,0,0.034907,0.715585,-0.872665,0,0.436332,511.993,512,512.019,481.314,513.035,636.271
0,-0.087266,0.087266,0.001523,0.785398,0.087266,0.001523,0.785398,0,-0.034907,0.715585,-0.872665,0,0.436332,0,0.034907,0.715585,-0.872665,0,0.436332,512,511.999,511.987,481.376,512.928,636.269
0,-0.087266,0.087266,0.001523,0.785398,0.087266,0.001523,0.785398,0,-0.034907,0.715585,-0.872665,0,0.436332,0,0.034907,0.715585,-0.872665,0,0.436332,512,511.999,511.989,481.335,512.999,636.268
0,-0.087266,0.087266,0.001523,0.785398,0.087266,0.001523,0.785398,0,-0.034907,0.715585,-0.872665,0,0.436332,0,0.034907,0.715585,-0.872665,0,0.436332,511.999,511.999,511.992,481.332,513.001,636.27
0,-0.087266,0.087266,0.001523,0.785398,0.087266,0.001523,0.785398,0,-0.034907,0.715585,-0.872665,0,0.436332,0,0.034907,0.715585,-0.872665,0,0.436332,511.997,512,511.998,481.332,513.008,636.268
0,-0.087266,0.087266,0.001523,0.785398,0.087266,0.001523,0.785398,0,-0.034907,0.715585,-0.872665,0,0.436332,0,0.034907,0.715585,-0.872665,0,0.436332,511.997,512,511.996,481.34,512.989,636.27
0,-0.087266,0.087266,0.001523,0.785398,0.087266,0.001523,0.785398,0,-0.034907,0.715585,-0.872665,0,0.436332,0,0.034907,0.715585,-0.872665,0,0.436332,511.992,512,512.022,481.304,513.045,636.271
0,-0.087266,0.087266,0.001523,0.785398,0.087266,0.001523,0.785398,0,-0.034907,0.715585,-0.872665,0,0.436332,0,0.034907,0.715585,-0.872665,0,0.436332,511.995,512,512.012,481.355,512.974,636.271
0,-0.087266,0.087266,0.001523,0.785398,0.087266,0.001523,0.785398,0,-0.034907,0.715585,-0.872665,0,0.436332,0,0.034907,0.715585,-0.872665,0,0.436332,512.001,511.999,511.986,481.367,512.937,636.269
0,-0.087266,0.087266,0.001523,0.785398,0.087266,0.001523,0.785398,0,-0.034907,0.715585,-0.872665,0,0.436332,0,0.034907,0.715585,-0.872665,0,0.436332,511.999,512,511.994,481.326,513.011,636.269
0,-0.087266,0.087266,0.001523,0.785398,0.087266,0.001523,0.785398,0,-0.034907,0.715585,-0.872665,0,0.436332,0,0.034907,0.715585,-0.872665,0,0.436332,511.997,512,512.002,481.33,513.012,636.268
0,-0.087266,0.087266,0.001523,0.785398,0.087266,0.001523,0.785398,0,-0.034907,0.715585,-0.872665,0,0.436332,0,0.034907,0.715585,-0.872665,0,0.436332,511.997,512,512.003,481.338,512.994,636.27
0,-0.087266,0.087266,0.001523,0.785398,0.087266,0.001523,0.785398,0,-0.034907,0.715585,-0.872665,0,0.436332,0,0.034907,0.715585,-0.872665,0,0.436332,511.999,511.999,511.995,481.347,512.972,636.27
0,-0.087266,0.087266,0.001523,0.785398,0.087266,0.001523,0.785398,0,-0.034907,0.715585,-0.872665,0,0.436332,0,0.034907,0.715585,-0.872665,0,0.436332,511.999,512,511.994,481.338,512.993,636.267
0,-0.087266,0.087266,0.001523,0.785398,0.087266,0.001523,0.785398,0,-0.034907,0.715585,-0.872665,0,0.436332,0,0.034907,0.715585,-0.872665,0,0.436332,511.999,512,511.996,481.335,512.995,636.27
0,-0.087266,0.087266,0.001523,0.785398,0.087266,0.001523,0.785398,0,-0.034907,0.715585,-0.872665,0,0.436332,0,0.034907,0.715585,-0.872665,0,0.436332,511.998,512,511.995,481.339,512.991,636.268
0,-0.087266,0.087266,0.001523,0.785398,0.087266,0.001523,0.785398,0,-0.034907,0.715585,-0.872665,0,0.436332,0,0.034907,0.715585,-0.872665,0,0.436332,512,512,512.001,481.332,513.018,636.282
0,-0.087266,0.087266,0.001523,0.785398,0.087266,0.001523,0.785398,0,-0.034907,0.715585,-0.872665,0,0.436332,0,0.034907,0.715585,-0.872665,0,0.436332,511.995,512,512.013,481.323,513.002,636.259
0,-0.087266,0.087266,0.001523,0.785398,0.087266,0.001523,0.785398,0,-0.034907,0.715585,-0.872665,0,0.436332,0,0.034907,0.715585,-0.872665,0,0.436332,511.998,512,512,481.352,512.965,636.269
0,-0.087266,0.087266,0.001523,0.785398,0.087266,0.001523,0.785398,0,-0.034907,0.715585,-0.872665,0,0.436332,0,0.034907,0.715585,-0.872665,0,0.436332,512,512,511.992,481.349,512.972,636.269
0,-0.087266,0.087266,0.001523,0.785398,0.087266,0.001523,0.785398,0,-0.034907,0.715585,-0.872665,0,0.436332,0,0.034907,0.715585,-0.872665,0,0.436332,511.999,512,511.996,481.332,512.999,636.27
0,-0.087266,0.087266,0.001523,0.785398,0.087266,0.001523,0.785398,0,-0.034907,0.715585,-0.872665,0,0.436332,0,0.034907,0.715585,-0.872665,0,0.436332,511.991,512,512.027,481.301,513.053,636.267
0,-0.087266,0.087266,0.001523,0.785398,0.087266,0.001523,0.785398,0,-0.034907,0.715585,-0.872665,0,0.436332,0,0.034907,0.715585,-0.872665,0,0.436332,511.995,512,512.013,481.358,512.964,636.273
0,-0.087266,0.087266,0.001523,0.785398,0.087266,0.001523,0.785398,0,-0.034907,0.715585,-0.872665,0,0.436332,0,0.034907,0.715585,-0.872665,0,0.436332,512.002,511.999,511.989,481.363,512.939,636.271
0,-0.087266,0.087266,0.001523,0.785398,0.087266,0.001523,0.785398,0,-0.034907,0.715585,-0.872665,0,0.436332,0,0.034907,0.715585,-0.872665,0,0.436332,511.995,512,512.014,481.312,513.044,636.267
0,-0.087266,0.087266,0.001523,0.785398,0.087266,0.001523,0.785398,0,-0.034907,0.715585,-0.872665,0,0.436332,0,0.034907,0.715585,-0.872665,0,0.436332,512.002,511.999,511.988,481.368,512.935,636.27
0,-0.087266,0.087266,0.001523,0.785398,0.087266,0.001523,0.785398,0,-0.034907,0.715585,-0.872665,0,0.436332,0,0.034907,0.715585,-0.872665,0,0.436332,511.992,512,512.028,481.288,513.074,636.268
0,-0.087266,0.087266,0.001523,0.785398,0.087266,0.001523,0.785398,0,-0.034907,0.715585,-0.872665,0,0.436332,0,0.034907,0.715585,-0.872665,0,0.436332,511.996,512,512.029,481.331,513.002,636.267
0,-0.087266,0.087266,0.001523,0.785398,0.087266,0.001523,0.785398,0,-0.034907,0.715585,-0.872665,0,0.436332,0,0.034907,0.715585,-0.872665,0,0.436332,512.003,511.999,511.992,481.389,512.908,636.276
0,-0.087266,0.087266,0.001523,0.785398,0.087266,0.001523,0.785398,0,-0.034907,0.715585,-0.872665,0,0.436332,0,0.034907,0.715585,-0.872665,0,0.436332,512,512,511.999,481.331,513.006,636.268
0,-0.087266,0.087266,0.001523,0.785398,0.087266,0.001523,0.785398,0,-0.034907,0.715585,-0.872665,0,0.436332,0,0.034907,0.715585,-0.872665,0,0.436332,512.004,511.999,511.986,481.354,512.959,636.27
0,-0.087266,0.087266,0.001523,0.785398,0.087266,0.001523,0.785398,0,-0.034907,0.715585,-0.872665,0,0.436332,0,0.034907,0.715585,-0.872665,0,0.436332,512.001,511.999,511.991,481.333,513.004,636.266
0,-0.087266,0.087266,0.001523,0.785398,0.087266,0.001523,0.785398,0,-0.034907,0.715585,-0.872665,0,0.436332,0,0.034907,0.715585,-0.872665,0,0.436332,512.001,511.999,511.99,481.34,512.989,636.269
0,-0.087266,0.087266,0.001523,0.785398,0.087266,0.001523,0.785398,0,-0.034907,0.715585,-0.872665,0,0.436332,0,0.034907,0.715585,-0.872665,0,0.436332,512,511.999,511.995,481.332,513,636.27
0,-0.087266,0.087266,0.001523,0.785398,0.087266,0.001523,0.785398,0,-0.034907,0.715585,-0.872665,0,0.436332,0,0.034907,0.715585,-0.872665,0,0.436332,512.001,511.999,511.988,481.35,512.973,636.268
0,-0.087266,0.087266,0.001523,0.785398,0.087266,0.001523,0.785398,0,-0.034907,0.715585,-0.872665,0,0.436332,0,0.034907,0.715585,-0.872665,0,0.436332,511.999,511.999,511.996,481.326,513.008,636.27
0,-0.087266,0.087266,0.001523,0.785398,0.087266,0.001523,0.785398,0,-0.034907,0.715585,-0.872665,0,0.436332,0,0.034907,0.715585,-0.872665,0,0.436332,512,511.999,511.989,481.35,512.973,636.268
0,-0.087266,0.087266,0.001523,0.785398,0.087266,0.001523,0.785398,0,-0.034907,0.715585,-0.872665,0,0.436332,0,0.034907,0.715585,-0.872665,0,0.436332,511.995,512,512.009,481.316,513.033,636.27
0,-0.087266,0.087266,0.001523,0.785398,0.087266,0.001523,0.785398,0,-0.034907,0.715585,-0.872665,0,0.436332,0,0.034907,0.715585,-0.872665,0,0.436332,511.998,512,511.999,481.348,512.966,636.271
0,-0.087266,0.087266,0.001523,0.785398,0.087266,0.001523,0.785398,0,-0.034907,0.715585,-0.872665,0,0.436332,0,0.034907,0.715585,-0.872665,0,0.436332,511.998,512,511.999,481.34,512.989,636.269
0,-0.087266,0.087266,0.001523,0.785398,0.087266,0.001523,0.785398,0,-0.034907,0.715585,-0.872665,0,0.436332,0,0.034907,0.715585,-0.872665,0,0.436332,511.995,512,512.014,481.32,513.019,636.272
0,-0.087266,0.087266,0.001523,0.785398,0.087266,0.001523,0.785398,0,-0.034907,0.715585,-0.872665,0,0.436332,0,0.034907,0.715585,-0.872665,0,0.436332,512.001,511.999,511.99,481.369,512.937,636.269
0,-0.087266,0.087266,0.001523,0.785398,0.087266,0.001523,0.785398,0,-0.034907,0.715585,-0.872665,0,0.436332,0,0.034907,0.715585,-0.872665,0,0.436332,511.998,512,512.002,481.325,513.014,636.269
0,-0.087266,0.087266,0.001523,0.785398,0.087266,0.001523,0.785398,0,-0.034907,0.715585,-0.872665,0,0.436332,0,0.034907,0.715585,-0.872665,0,0.436332,511.992,512.001,512.035,481.292,513.058,636.268
0,-0.087266,0.087266,0.001523,0.785398,0.087266,0.001523,0.785398,0,-0.034907,0.715585,-0.872665,0,0.436332,0,0.034907,0.715585,-0.872665,0,0.436332,512.003,511.999,511.984,481.407,512.878,636.274
0,-0.087266,0.087266,0.001523,0.785398,0.087266,0.001523,0.785398,0,-0.034907,0.715585,-0.872665,0,0.436332,0,0.034907,0.715585,-0.872665,0,0.436332,512.002,511.999,511.987,481.336,512.993,636.268
0,-0.087266,0.087266,0.001523,0.785398,0.087266,0.001523,0.785398,0,-0.034907,0.715585,-0.872665,0,0.436332,0,0.034907,0.715585,-0.872665,0,0.436332,512.001,511.999,511.99,481.334,512.993,636.269
0,-0.087266,0.087266,0.001523,0.785398,0.087266,0.001523,0.785398,0,-0.034907,0.715585,-0.872665,0,0.436332,0,0.034907,0.715585,-0.872665,0,0.436332,511.998,512,511.998,481.33,513.009,636.268
0,-0.087266,0.087266,0.001523,0.785398,0.087266,0.001523,0.785398,0,-0.034907,0.715585,-0.872665,0,0.436332,0,0.034907,0.715585,-0.872665,0,0.436332,512,511.999,511.992,481.347,512.973,636.27
0,-0.087266,0.087266,0.001523,0.785398,0.087266,0.001523,0.785398,0,-0.034907,0.715585,-0.872665,0,0.436332,0,0.034907,0.715585,-0.872665,0,0.436332,511.995,512,512.014,481.312,513.033,636.272
0,-0.087266,0.087266,0.001523,0.785398,0.087266,0.001523,0.785398,0,-0.034907,0.715585,-0.872665,0,0.436332,0,0.034907,0.715585,-0.872665,0,0.436332,511.999,512,511.998,481.358,512.955,636.269
0,-0.087266,0.087266,0.001523,0.785398,0.087266,0.001523,0.785398,0,-0.034907,0.715585,-0.872665,0,0.436332,0,0.034907,0.715585,-0.872665,0,0.436332,512,511.999,511.992,481.347,512.973,636.27
0,-0.087266,0.087266,0.001523,0.785398,0.087266,0.001523,0.785398,0,-0.034907,0.715585,-0.872665,0,0.436332,0,0.034907,0.715585,-0.872665,0,0.436332,512,511.999,511.994,481.336,512.99,636.27
0,-0.087266,0.087266,0.001523,0.785398,0.087266,0.001523,0.785398,0,-0.034907,0.715585,-0.872665,0,0.436332,0,0.034907,0.715585,-0.872665,0,0.436332,512,511.999,511.991,481.345,512.981,636.268
0,-0.087266,0.087266,0.001523,0.785398,0.087266,0.001523,0.785398,0,-0.034907,0.715585,-0.872665,0,0.436332,0,0.034907,0.715585,-0.872665,0,0.436332,511.998,511.999,511.999,481.334,513.003,636.271
0,-0.087266,0.087266,0.001523,0.785398,0.087266,0.001523,0.785398,0,-0.034907,0.715585,-0.872665,0,0.436332,0,0.034907,0.715585,-0.872665,0,0.436332,511.999,512,511.993,481.342,512.973,636.268
0,-0.087266,0.087266,0.001523,0.785398,0.087266,0.001523,0.785398,0,-0.034907,0.715585,-0.872665,0,0.436332,0,0.034907,0.715585,-0.872665,0,0.436332,511.998,512,511.996,481.335,512.994,636.27
0,-0.087266,0.087266,0.001523,0.785398,0.087266,0.001523,0.785398,0,-0.034907,0.715585,-0.872665,0,0.436332,0,0.034907,0.715585,-0.872665,0,0.436332,511.999,512,511.998,481.338,512.986,636.271
0,-0.087266,0.087266,0.001523,0.785398,0.087266,0.001523,0.785398,0,-0.034907,0.715585,-0.872665,0,0.436332,0,0.034907,0.715585,-0.872665,0,0.436332,511.996,512,512.005,481.333,513.003,636.269
0,-0.087266,0.087266,0.001523,0.785398,0.087266,0.001523,0.785398,0,-0.034907,0.715585,-0.872665,0,0.436332,0,0.034907,0.715585,-0.872665,0,0.436332,511.998,512,512.001,481.344,512.976,636.27
0,-0.087266,0.087266,0.001523,0.785398,0.087266,0.001523,0.785398,0,-0.034907,0.715585,-0.872665,0,0.436332,0,0.034907,0.715585,-0.872665,0,0.436332,511.996,512,512.013,481.324,513.009,636.272
0,-0.087266,0.087266,0.001523,0.785398,0.087266,0.001523,0.785398,0,-0.034907,0.715585,-0.872665,0,0.436332,0,0.034907,0.715585,-0.872665,0,0.436332,511.992,512.001,512.027,481.322,513.009,636.269
0,-0.087266,0.087266,0.001523,0.785398,0.087266,0.001523,0.785398,0,-0.034907,0.715585,-0.872665,0,0.436332,0,0.034907,0.715585,-0.872665,0,0.436332,512.002,511.999,511.991,481.385,512.915,636.272
0,-0.087266,0.087266,0.001523,0.785398,0.087266,0.001523,0.785398,0,-0.034907,0.715585,-0.872665,0,0.436332,0,0.034907,0.715585,-0.872665,0,0.436332,511.998,512,512.008,481.319,513.022,636.271
0,-0.087266,0.087266,0.001523,0.785398,0.087266,0.001523,0.785398,0,-0.034907,0.715585,-0.872665,0,0.436332,0,0.034907,0.715585,-0.872665,0,0.436332,512.001,511.999,511.996,481.357,512.96,636.269
0,-0.087266,0.087266,0.001523,0.785398,0.087266,0.001523,0.785398,0,-0.034907,0.715585,-0.872665,0,0.436332,0,0.034907,0.715585,-0.872665,0,0.436332,512.001,512,511.995,481.338,512.984,636.269
0,-0.087266,0.087266,0.001523,0.785398,0.087266,0.001523,0.785398,0,-0.034907,0.715585,-0.872665,0,0.436332,0,0.034907,0.715585,-0.872665,0,0.436332,512,512,511.998,481.336,512.99,636.27
0,-0.087266,0.087266,0.001523,0.785398,0.087266,0.001523,0.785398,0,-0.034907,0.715585,-0.872665,0,0.436332,0,0.034907,0.715585,-0.872665,0,0.436332,512.002,511.999,511.988,481.353,512.964,636.268
0,-0.087266,0.087266,0.001523,0.785398,0.087266,0.001523,0.785398,0,-0.034907,0.715585,-0.872665,0,0.436332,0,0.034907,0.715585,-0.872665,0,0.436332,511.994,512,512.017,481.308,513.042,636.269
0,-0.087266,0.087266,0.001523,0.785398,0.087266,0.001523,0.785398,0,-0.034907,0.715585,-0.872665,0,0.436332,0,0.034907,0.715585,-0.872665,0,0.436332,511.996,512,512.015,481.34,512.982,636.272
0,-0.087266,0.087266,0.001523,0.785398,0.087266,0.001523,0.785398,0,-0.034907,0.715585,-0.872665,0,0.436332,0,0.034907,0.715585,-0.872665,0,0.436332,512.003,511.999,511.987,481.373,512.927,636.269
0,-0.087266,0.087266,0.001523,0.785398,0.087266,0.001523,0.785398,0,-0.034907,0.715585,-0.872665,0,0.436332,0,0.034907,0.715585,-0.872665,0,0.436332,511.999,512,512,481.324,513.016,636.269
0,-0.087266,0.087266,0.001523,0.785398,0.087266,0.001523,0.785398,0,-0.034907,0.715585,-0.872665,0,0.436332,0,0.034907,0.715585,-0.872665,0,0.436332,512.001,511.999,511.995,481.346,512.971,636.271
0,-0.087266,0.087266,0.001523,0.785398,0.087266,0.001523,0.785398,0,-0.034907,0.715585,-0.872665,0,0.436332,0,0.034907,0.715585,-0.872665,0,0.436332,512.001,511.999,511.993,481.343,512.981,636.268
0,-0.087266,0.087266,0.001523,0.785398,0.087266,0.001523,0.785398,0,-0.034907,0.715585,-0.872665,0,0.436332,0,0.034907,0.715585,-0.872665,0,0.436332,512,511.999,511.993,481.34,512.984,636.269
0,-0.087266,0.087266,0.001523,0.785398,0.087266,0.001523,0.785398,0,-0.034907,0.715585,-0.872665,0,0.436332,0,0.034907,0.715585,-0.872665,0,0.436332,512,511.999,511.997,481.334,512.992,636.271
0,-0.087266,0.087266,0.001523,0.785398,0.087266,0.001523,0.785398,0,-0.034907,0.715585,-0.872665,0,0.436332,0,0.034907,0.715585,-0.872665,0,0.436332,511.99,512.003,512.033,481.295,513.053,636.265
0,-0.087266,0.087266,0.001523,0.785398,0.087266,0.001523,0.785398,0,-0.034907,0.715585,-0.872665,0,0.436332,0,0.034907,0.715585,-0.872665,0,0.436332,512.002,511.999,511.992,481.391,512.904,636.276
0,-0.087266,0.087266,0.001523,0.785398,0.087266,0.001523,0.785398,0,-0.034907,0.715585,-0.872665,0,0.436332,0,0.034907,0.715585,-0.872665,0,0.436332,511.992,512.004,512.035,481.282,513.072,636.269
0,-0.087266,0.087266,0.001523,0.785398,0.087266,0.001523,0.785398,0,-0.034907,0.715585,-0.872665,0,0.436332,0,0.034907,0.715585,-0.872665,0,0.436332,512.001,511.999,511.997,481.391,512.907,636.272
0,-0.087266,0.087266,0.001523,0.785398,0.087266,0.001523,0.785398,0,-0.034907,0.715585,-0.872665,0,0.436332,0,0.034907,0.715585,-0.872665,0,0.436332,512.002,511.999,511.994,481.343,512.98,636.27
0,-0.087266,0.087266,0.001523,0.785398,0.087266,0.001523,0.785398,0,-0.034907,0.715585,-0.872665,0,0.436332,0,0.034907,0.715585,-0.872665,0,0.436332,511.994,512.002,512.024,481.303,513.043,636.269
0,-0.087266,0.087266,0.001523,0.785398,0.087266,0.001523,0.785398,0,-0.034907,0.715585,-0.872665,0,0.436332,0,0.034907,0.715585,-0.872665,0,0.436332,511.996,512.004,512.03,481.324,513.006,636.27
0,-0.087266,0.087266,0.001523,0.785398,0.087266,0.001523,0.785398,0,-0.034907,0.715585,-0.872665,0,0.436332,0,0.034907,0.715585,-0.872665,0,0.436332,511.998,512.001,512.017,481.363,512.949,636.272
0,-0.087266,0.087266,0.001523,0.785398,0.087266,0.001523,0.785398,0,-0.034907,0.715585,-0.872665,0,0.436332,0,0.034907,0.715585,-0.872665,0,0.436332,511.996,512.003,512.027,481.324,513.004,636.268
0,-0.087266,0.087266,0.001523,0.785398,0.087266,0.001523,0.785398,0,-0.034907,0.715585,-0.872665,0,0.436332,0,0.034907,0.715585,-0.872665,0,0.436332,512.008,511.999,511.977,481.402,512.885,636.273
0,-0.087266,0.087266,0.001523,0.785398,0.087266,0.001523,0.785398,0,-0.034907,0.715585,-0.872665,0,0.436332,0,0.034907,0.715585,-0.872665,0,0.436332,512.006,511.999,511.982,481.331,512.998,636.267
0,-0.087266,0.087266,0.001523,0.785398,0.087266,0.001523,0.785398,0,-0.034907,0.715585,-0.872665,0,0.436332,0,0.034907,0.715585,-0.872665,0,0.436332,512.004,511.999,511.982,481.341,512.988,636.266
0,-0.087266,0.087266,0.001523,0.785398,0.087266,0.001523,0.785398,0,-0.034907,0.715585,-0.872665,0,0.436332,0,0.034907,0.715585,-0.872665,0,0.436332,512.002,511.999,511.988,481.331,512.997,636.269
0,-0.087266,0.087266,0.001523,0.785398,0.087266,0.001523,0.785398,0,-0.034907,0.715585,-0.872665,0,0.436332,0,0.034907,0.715585,-0.872665,0,0.436332,512,511.999,511.991,481.337,512.994,636.267
0,-0.087266,0.087266,0.001523,0.785398,0.087266,0.001523,0.785398,0,-0.034907,0.715585,-0.872665,0,0.436332,0,0.034907,0.715585,-0.872665,0,0.436332,512.001,511.999,511.989,481.341,512.979,636.271
0,-0.087266,0.087266,0.001523,0.785398,0.087266,0.001523,0.785398,0,-0.034907,0.715585,-0.872665,0,0.436332,0,0.034907,0.715585,-0.872665,0,0.436332,511.999,511.999,511.994,481.335,512.996,636.268
0,-0.087266,0.087266,0.001523,0.785398,0.087266,0.001523,0.785398,0,-0.034907,0.715585,-0.872665,0,0.436332,0,0.034907,0.715585,-0.872665,0,0.436332,512,511.999,511.988,481.347,512.97,636.271
0,-0.087266,0.087266,0.001523,0.785398,0.087266,0.001523,0.785398,0,-0.034907,0.715585,-0.872665,0,0.436332,0,0.034907,0.715585,-0.872665,0,0.436332,511.994,512,512.014,481.308,513.039,636.27
0,-0.087266,0.087266,0.001523,0.785398,0.087266,0.001523,0.785398,0,-0.034907,0.715585,-0.872665,0,0.436332,0,0.034907,0.715585,-0.872665,0,0.436332,512.001,511.999,511.989,481.37,512.93,636.27
0,-0.087266,0.087266,0.001523,0.785398,0.087266,0.001523,0.785398,0,-0.034907,0.715585,-0.872665,0,0.436332,0,0.034907,0.715585,-0.872665,0,0.436332,511.991,512.003,512.034,481.278,513.082,636.269
0,-0.087266,0.087266,0.001523,0.785398,0.087266,0.001523,0.785398,0,-0.034907,0.715585,-0.872665,0,0.436332,0,0.034907,0.715585,-0.872665,0,0.436332,512.003,511.999,511.989,481.399,512.883,636.274
0,-0.087266,0.087266,0.001523,0.785398,0.087266,0.001523,0.785398,0,-0.034907,0.715585,-0.872665,0,0.436332,0,0.034907,0.715585,-0.872665,0,0.436332,512,511.999,511.994,481.335,512.997,636.267
0,-0.087266,0.087266,0.001523,0.785398,0.087266,0.001523,0.785398,0,-0.034907,0.715585,-0.872665,0,0.436332,0,0.034907,0.715585,-0.872665,0,0.436332,512.001,511.999,511.988,481.347,512.97,636.27
0,-0.087266,0.087266,0.001523,0.785398,0.087266,0.001523,0.785398,0,-0.034907,0.715585,-0.872665,0,0.436332,0,0.034907,0.715585,-0.872665,0,0.436332,512.001,511.999,511.992,481.333,512.991,636.269
0,-0.087266,0.087266,0.001523,0.785398,0.087266,0.001523,0.785398,0,-0.034907,0.715585,-0.872665,0,0.436332,0,0.034907,0.715585,-0.872665,0,0.436332,511.997,511.999,512.003,481.329,513.009,636.268
0,-0.087266,0.087266,0.001523,0.785398,0.087266,0.001523,0.785398,0,-0.034907,0.715585,-0.872665,0,0.436332,0,0.034907,0.715585,-0.872665,0,0.436332,511.999,512,512.005,481.345,512.991,636.28
0,-0.087266,0.087266,0.001523,0.785398,0.087266,0.001523,0.785398,0,-0.034907,0.715585,-0.872665,0,0.436332,0,0.034907,0.715585,-0.872665,0,0.436332,512.001,511.999,511.989,481.35,512.943,636.26
0,-0.087266,0.087266,0.001523,0.785398,0.087266,0.001523,0.785398,0,-0.034907,0.715585,-0.872665,0,0.436332,0,0.034907,0.715585,-0.872665,0,0.436332,511.995,512,512.013,481.312,513.032,636.27
0,-0.087266,0.087266,0.001523,0.785398,0.087266,0.001523,0.785398,0,-0.034907,0.715585,-0.872665,0,0.436332,0,0.034907,0.715585,-0.872665,0,0.436332,512,511.999,511.998,481.356,512.952,636.272
0,-0.087266,0.087266,0.001523,0.785398,0.087266,0.001523,0.785398,0,-0.034907,0.715585,-0.872665,0,0.436332,0,0.034907,0.715585,-0.872665,0,0.436332,512,511.999,511.993,481.346,512.973,636.268
0,-0.087266,0.087266,0.001523,0.785398,0.087266,0.001523,0.785398,0,-0.034907,0.715585,-0.872665,0,0.436332,0,0.034907,0.715585,-0.872665,0,0.436332,511.998,511.999,512.002,481.33,513.002,636.27
0,-0.087266,0.087266,0.001523,0.785398,0.087266,0.001523,0.785398,0,-0.034907,0.715585,-0.872665,0,0.436332,0,0.034907,0.715585,-0.872665,0,0.436332,512.001,511.999,511.994,481.348,512.964,636.271
0,-0.087266,0.087266,0.001523,0.785398,0.087266,0.001523,0.785398,0,-0.034907,0.715585,-0.872665,0,0.436332,0,0.034907,0.715585,-0.872665,0,0.436332,511.999,511.999,511.997,481.337,512.991,636.268
0,-0.087266,0.087266,0.001523,0.785398,0.087266,0.001523,0.785398,0,-0.034907,0.715585,-0.872665,0,0.436332,0,0.034907,0.715585,-0.872665,0,0.436332,512,511.999,511.992,481.346,512.969,636.27
0,-0.087266,0.087266,0.001523,0.785398,0.087266,0.001523,0.785398,0,-0.034907,0.715585,-0.872665,0,0.436332,0,0.034907,0.715585,-0.872665,0,0.436332,512,511.999,511.996,481.335,512.99,636.271
0,-0.087266,0.087266,0.001523,0.785398,0.087266,0.001523,0.785398,0,-0.034907,0.715585,-0.872665,0,0.436332,0,0.034907,0.715585,-0.872665,0,0.436332,512,511.999,511.99,481.349,512.968,636.269
0,-0.087266,0.087266,0.001523,0.785398,0.087266,0.001523,0.785398,0,-0.034907,0.715585,-0.872665,0,0.436332,0,0.034907,0.715585,-0.872665,0,0.436332,512,511.999,511.993,481.336,512.986,636.27
0,-0.087266,0.087266,0.001523,0.785398,0.087266,0.001523,0.785398,0,-0.034907,0.715585,-0.872665,0,0.436332,0,0.034907,0.715585,-0.872665,0,0.436332,511.998,512,511.999,481.335,512.997,636.268
0,-0.087266,0.087266,0.001523,0.785398,0.087266,0.001523,0.785398,0,-0.034907,0.715585,-0.872665,0,0.436332,0,0.034907,0.715585,-0.872665,0,0.436332,511.995,512,512.011,481.327,513.004,636.271
0,-0.087266,0.087266,0.001523,0.785398,0.087266,0.001523,0.785398,0,-0.034907,0.715585,-0.872665,0,0.436332,0,0.034907,0.715585,-0.872665,0,0.436332,512.001,511.999,511.994,481.359,512.944,636.272
0,-0.087266,0.087266,0.001523,0.785398,0.087266,0.001523,0.785398,0,-0.034907,0.715585,-0.872665,0,0.436332,0,0.034907,0.715585,-0.872665,0,0.436332,512.001,511.999,511.991,481.345,512.974,636.269
0,-0.087266,0.087266,0.001523,0.785398,0.087266,0.001523,0.785398,0,-0.034907,0.715585,-0.872665,0,0.436332,0,0.034907,0.715585,-0.872665,0,0.436332,511.995,512.001,512.016,481.311,513.032,636.269
0,-0.087266,0.087266,0.001523,0.785398,0.087266,0.001523,0.785398,0,-0.034907,0.715585,-0.872665,0,0.436332,0,0.034907,0.715585,-0.872665,0,0.436332,512.001,511.999,511.992,481.368,512.932,636.271
0,-0.087266,0.087266,0.001523,0.785398,0.087266,0.001523,0.785398,0,-0.034907,0.715585,-0.872665,0,0.436332,0,0.034907,0.715585,-0.872665,0,0.436332,511.995,512.001,512.014,481.316,513.024,636.269
0,-0.087266,0.087266,0.001523,0.785398,0.087266,0.001523,0.785398,0,-0.034907,0.715585,-0.872665,0,0.436332,0,0.034907,0.715585,-0.872665,0,0.436332,512.001,511.999,511.995,481.362,512.942,636.272
0,-0.087266,0.087266,0.001523,0.785398,0.087266,0.001523,0.785398,0,-0.034907,0.715585,-0.872665,0,0.436332,0,0.034907,0.715585,-0.872665,0,0.436332,512.001,511.999,511.996,481.339,512.981,636.271
0,-0.087266,0.087266,0.001523,0.785398,0.087266,0.001523,0.785398,0,-0.034907,0.715585,-0.872665,0,0.436332,0,0.034907,0.715585,-0.872665,0,0.436332,512.001,511.999,511.991,481.346,512.972,636.269
0,-0.087266,0.087266,0.001523,0.785398,0.087266,0.001523,0.785398,0,-0.034907,0.715585,-0.872665,0,0.436332,0,0.034907,0.715585,-0.872665,0,0.436332,511.997,512,512.009,481.321,513.017,636.271
0,-0.087266,0.087266,0.001523,0.785398,0.087266,0.001523,0.785398,0,-0.034907,0.715585,-0.872665,0,0.436332,0,0.034907,0.715585,-0.872665,0,0.436332,512.001,512,512.001,481.356,512.976,636.281
0,-0.087266,0.087266,0.001523,0.785398,0.087266,0.001523,0.785398,0,-0.034907,0.715585,-0.872665,0,0.436332,0,0.034907,0.715585,-0.872665,0,0.436332,512.001,511.999,511.99,481.347,512.945,636.259
0,-0.087266,0.087266,0.001523,0.785398,0.087266,0.001523,0.785398,0,-0.034907,0.715585,-0.872665,0,0.436332,0,0.034907,0.715585,-0.872665,0,0.436332,512.001,511.999,511.991,481.339,512.981,636.27
0,-0.087266,0.087266,0.001523,0.785398,0.087266,0.001523,0.785398,0,-0.034907,0.715585,-0.872665,0,0.436332,0,0.034907,0.715585,-0.872665,0,0.436332,511.998,512,512.001,481.331,513.003,636.268
0,-0.087266,0.087266,0.001523,0.785398,0.087266,0.001523,0.785398,0,-0.034907,0.715585,-0.872665,0,0.436332,0,0.034907,0.715585,-0.872665,0,0.436332,511.999,511.999,511.998,481.344,512.973,636.27
0,-0.087266,0.087266,0.001523,0.785398,0.087266,0.001523,0.785398,0,-0.034907,0.715585,-0.872665,0,0.436332,0,0.034907,0.715585,-0.872665,0,0.436332,511.993,512.005,512.043,481.261,513.091,636.266
0,-0.087266,0.087266,0.001523,0.785398,0.087266,0.001523,0.785398,0,-0.034907,0.715585,-0.872665,0,0.436332,0,0.034907,0.715585,-0.872665,0,0.436332,511.986,512.007,512.069,481.324,514.926,636.22
0,-0.087266,0.087266,0.001523,0.785398,0.087266,0.001523,0.785398,0,-0.034907,0.715585,-0.872665,0,0.436332,0,0.034907,0.715585,-0.872665,0,0.436332,512.028,512.004,512.067,481.278,511.664,636.393
0,-0.087266,0.087266,0.001523,0.785398,0.087266,0.001523,0.785398,0,-0.034907,0.715585,-0.872665,0,0.436332,0,0.034907,0.715585,-0.872665,0,0.436332,512.03,512.003,512.054,481.353,512.611,636.281
0,-0.087266,0.087266,0.001523,0.785398,0.087266,0.001523,0.785398,0,-0.031556,0.707207,-0.861495,0.004189,0.432143,0,0.042268,0.703602,-0.859781,0.013839,0.429895,512.075,511.605,511.899,481.272,522.155,647.305
0,-0.087266,0.087266,0.001523,0.785398,0.087266,0.001523,0.785398,0,-0.028205,0.69883,-0.850325,0.008378,0.427954,0,0.04963,0.691619,-0.846896,0.027678,0.423459,512.041,511.313,511.736,480.524,521.224,644.382
0,-0.087266,0.087266,0.001523,0.785398,0.087266,0.001523,0.785398,0,-0.024853,0.690452,-0.839155,0.012566,0.423766,0,0.056992,0.679636,-0.834012,0.041516,0.417022,511.964,511.043,511.618,480.323,521.004,642.572
0,-0.087266,0.087266,0.001523,0.785398,0.087266,0.001523,0.785398,0,-0.021502,0.682075,-0.827985,0.016755,0.419577,0,0.064354,0.667653,-0.821127,0.055355,0.410585,511.851,510.798,511.505,480.357,520.837,641.27
0,-0.087266,0.087266,0.001523,0.785398,0.087266,0.001523,0.785398,0,-0.018151,0.673697,-0.816814,0.020944,0.415388,0,0.071715,0.65567,-0.808243,0.069194,0.404148,511.71,510.587,511.406,480.71,520.659,640.167
0,-0.087266,0.087266,0.001523,0.785398,0.087266,0.001523,0.785398,0,-0.0148,0.665319,-0.805644,0.025133,0.411199,0,0.079077,0.643687,-0.795359,0.083033,0.397712,511.258,510.313,511.202,478.853,527.237,640.815
0,-0.087266,0.087266,0.001523,0.785398,0.087266,0.001523,0.785398,0,-0.011449,0.656942,-0.794474,0.029321,0.407011,0,0.086439,0.631704,-0.782474,0.096872,0.391275,510.752,510.033,510.995,478.954,527.336,638.74
0,-0.087266,0.087266,0.001523,0.785398,0.087266,0.001523,0.785398,0,-0.008098,0.648564,-0.783304,0.03351,0.402822,0,0.0938,0.619721,-0.76959,0.110711,0.384838,510.229,509.79,510.883,479.894,527.205,637.701
0,-0.087266,0.087266,0.001523,0.785398,0.087266,0.001523,0.785398,0,-0.004747,0.640187,-0.772134,0.037699,0.398633,0,0.101162,0.607738,-0.756705,0.124549,0.378401,509.702,509.548,510.741,479.915,526.589,636.686
0,-0.087266,0.087266,0.001523,0.785398,0.087266,0.001523,0.785398,0,-0.001396,0.631809,-0.760964,0.041888,0.394444,0,0.108524,0.595755,-0.743821,0.138388,0.371965,509.179,509.355,510.743,481.003,526.25,636.494
0,-0.087266,0.087266,0.001523,0.785398,0.087266,0.001523,0.785398,0,0.001955,0.623432,-0.749794,0.046077,0.390255,0,0.115886,0.583772,-0.730936,0.152227,0.365528,508.686,509.177,510.713,481.322,524.685,636.28
0,-0.087266,0.087266,0.001523,0.785398,0.087266,0.001523,0.785398,0,0.005306,0.615054,-0.738624,0.050265,0.386067,0,0.123247,0.571789,-0.718052,0.166066,0.359091,508.227,509.068,510.704,482.939,524.915,636.192
0,-0.087266,0.087266,0.001523,0.785398,0.087266,0.001523,0.785398,0,0.008657,0.606676,-0.727454,0.054454,0.381878,0,0.130609,0.559806,-0.705168,0.179905,0.352654,507.821,509.023,510.691,484.409,524.161,635.85
0,-0.087266,0.087266,0.001523,0.785398,0.087266,0.001523,0.785398,0,0.012008,0.598299,-0.716283,0.058643,0.377689,0,0.137971,0.547823,-0.692283,0.193743,0.346218,507.62,509.137,510.341,486.454,517.884,644.061
0,-0.087266,0.087266,0.001523,0.785398,0.087266,0.001523,0.785398,0,0.015359,0.589921,-0.705113,0.062832,0.3735,0,0.145333,0.53584,-0.679399,0.207582,0.339781,507.036,509.285,510.183,487.881,509.082,631.364
0,-0.087266,0.087266,0.001523,0.785398,0.087266,0.001523,0.785398,0,0.01871,0.581544,-0.693943,0.067021,0.369311,0,0.152694,0.523857,-0.666514,0.221421,0.333344,506.964,509.533,510.16,492.89,510.022,633.932
0,-0.087266,0.087266,0.001523,0.785398,0.087266,0.001523,0.785398,0,0.022061,0.573166,-0.682773,0.071209,0.365123,0,0.160056,0.511874,-0.65363,0.23526,0.326907,507.058,509.905,510.17,489.483,506.767,635.868
0,-0.087266,0.087266,0.001523,0.785398,0.087266,0.001523,0.785398,0,0.025412,0.564788,-0.671603,0.075398,0.360934,0,0.167418,0.499891,-0.640746,0.249099,0.320471,507.285,510.054,510.225,490.068,503.158,635.178
0,-0.087266,0.087266,0.001523,0.785398,0.087266,0.001523,0.785398,0,0.028763,0.556411,-0.660433,0.079587,0.356745,0,0.17478,0.487908,-0.627861,0.262938,0.314034,507.518,510.202,510.285,489.71,502.482,636.464
0,-0.087266,0.087266,0.001523,0.785398,0.087266,0.001523,0.785398,0,0.032114,0.548033,-0.649263,0.083776,0.352556,0,0.182141,0.475925,-0.614977,0.276776,0.307597,508.885,510.353,510.601,489.403,484.87,639.455
0,-0.087266,0.087266,0.001523,0.785398,0.087266,0.001523,0.785398,0,0.035465,0.539656,-0.638093,0.087964,0.348368,0,0.189503,0.463942,-0.602092,0.290615,0.301161,509.419,510.461,510.707,489.384,495.94,634.422
0,-0.087266,0.087266,0.001523,0.785398,0.087266,0.001523,0.785398,0,0.038816,0.531278,-0.626923,0.092153,0.344179,0,0.196865,0.451959,-0.589208,0.304454,0.294724,509.958,510.685,510.815,488.344,494.541,636.377
0,-0.087266,0.087266,0.001523,0.785398,0.087266,0.001523,0.785398,0,0.042167,0.522901,-0.615752,0.096342,0.33999,0,0.204226,0.439976,-0.576323,0.318293,0.288287,510.494,510.954,510.924,487.721,494.321,635.957
0,-0.087266,0.087266,0.001523,0.785398,0.087266,0.001523,0.785398,0,0.045518,0.514523,-0.604582,0.100531,0.335801,0,0.211588,0.427993,-0.563439,0.332132,0.28185,510.985,511.23,511.023,488.208,495.32,636.612
0,-0.087266,0.087266,0.001523,0.785398,0.087266,0.001523,0.785398,0,0.048869,0.506145,-0.593412,0.10472,0.331612,0,0.21895,0.41601,-0.550555,0.34597,0.275414,511.47,511.58,511.111,487.75,495.205,635.782
0,-0.087266,0.087266,0.001523,0.785398,0.087266,0.001523,0.785398,0,0.05222,0.497768,-0.582242,0.108908,0.327424,0,0.226312,0.404027,-0.53767,0.359809,0.268977,511.866,511.62,511.195,488.623,497.139,637.406
0,-0.087266,0.087266,0.001523,0.785398,0.087266,0.001523,0.785398,0,0.055571,0.48939,-0.571072,0.113097,0.323235,0,0.233673,0.392044,-0.524786,0.373648,0.26254,512.236,511.789,511.266,488.58,497.492,636.451
0,-0.087266,0.087266,0.001523,0.785398,0.087266,0.001523,0.785398,0,0.058922,0.481013,-0.559902,0.117286,0.319046,0,0.241035,0.380061,-0.511901,0.387487,0.256103,512.195,510.047,511.36,493.189,507.074,644.927
0,-0.087266,0.087266,0.001523,0.785398,0.087266,0.001523,0.785398,0,0.062273,0.472635,-0.548732,0.121475,0.314857,0,0.248397,0.368078,-0.499017,0.401326,0.249667,512.203,508.531,511.456,494.844,505.912,639.388
0,-0.087266,0.087266,0.001523,0.785398,0.087266,0.001523,0.785398,0,0.065624,0.464257,-0.537562,0.125664,0.310668,0,0.255759,0.356095,-0.486133,0.415164,0.24323,511.955,509.056,511.438,477.34,510.255,625.458
0,-0.087266,0.087266,0.001523,0.785398,0.087266,0.001523,0.785398,0,0.068975,0.45588,-0.526392,0.129852,0.30648,0,0.26312,0.344112,-0.473248,0.429003,0.236793,511.804,509.279,511.422,479.625,509.758,636.384
0,-0.087266,0.087266,0.001523,0.785398,0.087266,0.001523,0.785398,0,0.072326,0.447502,-0.515221,0.134041,0.302291,0,0.270482,0.332129,-0.460364,0.442842,0.230356,511.713,509.493,511.408,481.343,508.424,637.52
0,-0.087266,0.087266,0.001523,0.785398,0.087266,0.001523,0.785398,0,0.075678,0.439125,-0.504051,0.13823,0.298102,0,0.277844,0.320146,-0.447479,0.456681,0.22392,511.679,509.749,511.392,482.715,507.008,637.737
0,-0.087266,0.087266,0.001523,0.785398,0.087266,0.001523,0.785398,0,0.079029,0.430747,-0.492881,0.142419,0.293913,0,0.285206,0.308163,-0.434595,0.47052,0.217483,511.7,510.044,511.38,483.998,505.687,637.863
0,-0.087266,0.087266,0.001523,0.785398,0.087266,0.001523,0.785398,0,0.08238,0.42237,-0.481711,0.146607,0.289725,0,0.292567,0.29618,-0.42171,0.484359,0.211046,511.75,510.199,511.378,486.474,504.816,637.205
0,-0.087266,0.087266,0.001523,0.785398,0.087266,0.001523,0.785398,0,0.085731,0.413992,-0.470541,0.150796,0.285536,0,0.299929,0.284197,-0.408826,0.498197,0.20461,511.803,510.145,511.39,489.216,504.487,636.228
0,-0.087266,0.087266,0.001523,0.785398,0.087266,0.001523,0.785398,0,0.089082,0.405614,-0.459371,0.154985,0.281347,0,0.307291,0.272214,-0.395942,0.512036,0.198173,511.866,510.107,511.407,489.922,504.19,636.229
0,-0.087266,0.087266,0.001523,0.785398,0.087266,0.001523,0.785398,0,0.092433,0.397237,-0.448201,0.159174,0.277158,0,0.314653,0.260231,-0.383057,0.525875,0.191736,511.938,510.094,511.431,490.469,503.948,636.425
0,-0.087266,0.087266,0.001523,0.785398,0.087266,0.001523,0.785398,0,0.095784,0.388859,-0.437031,0.163363,0.272969,0,0.322014,0.248248,-0.370173,0.539714,0.185299,512.006,510.1,511.449,490.868,503.987,636.739
0,-0.087266,0.087266,0.001523,0.785398,0.087266,0.001523,0.785398,0,0.099135,0.380482,-0.425861,0.167551,0.268781,0,0.329376,0.236265,-0.357288,0.553553,0.178863,512.056,510.117,511.467,491.124,504.359,637.036
0,-0.087266,0.087266,0.001523,0.785398,0.087266,0.001523,0.785398,0,0.102486,0.372104,-0.41469,0.17174,0.264592,0,0.336738,0.224282,-0.344404,0.567391,0.172426,512.094,510.375,511.415,495.165,504.796,637.281
0,-0.087266,0.087266,0.001523,0.785398,0.087266,0.001523,0.785398,0,0.105837,0.363726,-0.40352,0.175929,0.260403,0,0.344099,0.212299,-0.33152,0.58123,0.165989,512.117,510.437,511.441,492.588,504.911,637.208
0,-0.087266,0.087266,0.001523,0.785398,0.087266,0.001523,0.785398,0,0.109188,0.355349,-0.39235,0.180118,0.256214,0,0.351461,0.200316,-0.318635,0.595069,0.159552,512.15,510.512,511.46,492.697,504.726,637.234
0,-0.087266,0.087266,0.001523,0.785398,0.087266,0.001523,0.785398,0,0.112539,0.346971,-0.38118,0.184306,0.252026,0,0.358823,0.188333,-0.305751,0.608908,0.153116,512.195,510.623,511.472,493.318,504.579,637.334
0,-0.087266,0.087266,0.001523,0.785398,0.087266,0.001523,0.785398,0,0.11589,0.338594,-0.37001,0.188495,0.247837,0,0.366185,0.17635,-0.292866,0.622747,0.146679,512.251,510.764,511.479,493.935,504.443,637.43
0,-0.087266,0.087266,0.001523,0.785398,0.087266,0.001523,0.785398,0,0.119241,0.330216,-0.35884,0.192684,0.243648,0,0.373546,0.164367,-0.279982,0.636586,0.140242,512.312,510.925,511.475,494.447,504.407,637.57
0,-0.087266,0.087266,0.001523,0.785398,0.087266,0.001523,0.785398,0,0.122592,0.321839,-0.34767,0.196873,0.239459,0,0.380908,0.152384,-0.267097,0.650424,0.133805,512.367,511.091,511.473,494.676,504.689,637.777
0,-0.087266,0.087266,0.001523,0.785398,0.087266,0.001523,0.785398,0,0.125943,0.313461,-0.3365,0.201062,0.23527,0,0.38827,0.140401,-0.254213,0.664263,0.127369,512.41,511.264,511.471,494.877,504.98,637.823
0,-0.087266,0.087266,0.001523,0.785398,0.087266,0.001523,0.785398,0,0.129294,0.305083,-0.32533,0.20525,0.231082,0,0.395632,0.128418,-0.241329,0.678102,0.120932,512.442,511.446,511.459,495.081,505.255,637.82
0,-0.087266,0.087266,0.001523,0.785398,0.087266,0.001523,0.785398,0,0.132645,0.296706,-0.314159,0.209439,0.226893,0,0.402993,0.116435,-0.228444,0.691941,0.114495,512.463,511.637,511.447,495.28,505.542,637.795
0,-0.087266,0.087266,0.001523,0.785398,0.087266,0.001523,0.785398,0,0.135996,0.288328,-0.302989,0.213628,0.222704,0,0.410355,0.104452,-0.21556,0.70578,0.108058,512.473,511.837,511.424,495.481,505.807,637.758
0,-0.087266,0.087266,0.001523,0.785398,0.087266,0.001523,0.785398,0,0.139347,0.279951,-0.291819,0.217817,0.218515,0,0.417717,0.092469,-0.202675,0.719618,0.101622,512.521,512.08,511.397,496.209,505.049,637.385
0,-0.087266,0.087266,0.001523,0.785398,0.087266,0.001523,0.785398,0,0.142698,0.271573,-0.280649,0.222006,0.214326,0,0.425079,0.080486,-0.189791,0.733457,0.095185,512.552,512.328,511.37,496.386,505.35,637.739
0,-0.087266,0.087266,0.001523,0.785398,0.087266,0.001523,0.785398,0,0.146049,0.263195,-0.269479,0.226194,0.210138,0,0.43244,0.068503,-0.176907,0.747296,0.088748,512.573,512.586,511.333,496.557,505.619,637.74
0,-0.087266,0.087266,0.001523,0.785398,0.087266,0.001523,0.785398,0,0.1494,0.254818,-0.258309,0.230383,0.205949,0,0.439802,0.05652,-0.164022,0.761135,0.082312,512.559,512.749,511.54,477.795,505.798,636.358
0,-0.087266,0.087266,0.001523,0.785398,0.087266,0.001523,0.785398,0,0.152751,0.24644,-0.247139,0.234572,0.20176,0,0.447164,0.044537,-0.151138,0.774974,0.075875,512.56,512.869,511.509,488.25,506.024,637.026
0,-0.087266,0.087266,0.001523,0.785398,0.087266,0.001523,0.785398,0,0.156102,0.238063,-0.235969,0.238761,0.197571,0,0.454525,0.032554,-0.138253,0.788813,0.069438,512.551,512.98,511.465,488.287,506.293,636.774
0,-0.087266,0.087266,0.001523,0.785398,0.087266,0.001523,0.785398,0,0.159453,0.229685,-0.224799,0.242949,0.193383,0,0.461887,0.020571,-0.125369,0.802651,0.063001,512.532,513.084,511.419,488.103,506.557,636.678
0,-0.087266,0.087266,0.001523,0.785398,0.087266,0.001523,0.785398,0,0.162804,0.221308,-0.213628,0.247138,0.189194,0,0.469249,0.008588,-0.112484,0.81649,0.056565,512.5,513.178,511.366,488.013,506.808,636.636
0,-0.087266,0.087266,0.001523,0.785398,0.087266,0.001523,0.785398,0,0.166155,0.21293,-0.202458,0.251327,0.185005,0,0.476611,-0.003395,-0.0996,0.830329,0.050128,512.097,513.252,511.237,488.161,513.716,634.747
0,-0.087266,0.087266,0.001523,0.785398,0.087266,0.001523,0.785398,0,0.169506,0.204552,-0.191288,0.255516,0.180816,0,0.483972,-0.015378,-0.086716,0.844168,0.043691,511.925,513.334,511.185,488.007,508.275,636.385
0,-0.087266,0.087266,0.001523,0.785398,0.087266,0.001523,0.785398,0,0.172857,0.196175,-0.180118,0.259705,0.176627,0,0.491334,-0.027361,-0.073831,0.858007,0.037254,511.827,512.5,511.212,497.273,508.973,640.619
0,-0.087266,0.087266,0.001523,0.785398,0.087266,0.001523,0.785398,0,0.174533,0.191986,-0.174533,0.261799,0.174533,0,0.495019,-0.036974,-0.074906,0.864937,0.03793,511.566,512.229,511.318,487.362,506.547,636.133
0,-0.087266,0.087266,0.001523,0.785398,0.087266,0.001523,0.785398,0,0.174533,0.191986,-0.174533,0.261799,0.174533,0,0.495028,-0.044219,-0.089939,0.86496,0.045719,511.131,512.085,511.417,484.882,505.281,635.033
0,-0.087266,0.087266,0.001523,0.785398,0.087266,0.001523,0.785398,0,0.174533,0.191986,-0.174533,0.261799,0.174533,0,0.495036,-0.048973,-0.100607,0.864979,0.051633,510.731,512.05,511.449,484.713,505.845,635.481
0,-0.087266,0.087266,0.001523,0.785398,0.087266,0.001523,0.785398,0,0.174533,0.191986,-0.174533,0.261799,0.174533,0,0.495043,-0.052992,-0.110057,0.864997,0.057065,510.366,512.05,511.45,484.929,506.266,635.766
0,-0.087266,0.087266,0.001523,0.785398,0.087266,0.001523,0.785398,0,0.174533,0.191986,-0.174533,0.261799,0.174533,0,0.49505,-0.056062,-0.117964,0.865015,0.061901,510.024,512.073,511.419,485.242,506.676,635.969
0,-0.087266,0.087266,0.001523,0.785398,0.087266,0.001523,0.785398,0,0.174533,0.191986,-0.174533,0.261799,0.174533,0,0.495056,-0.058336,-0.124656,0.86503,0.06632,509.7,512.104,511.378,485.674,506.983,636.182
0,-0.087266,0.087266,0.001523,0.785398,0.087266,0.001523,0.785398,0,0.174533,0.191986,-0.174533,0.261799,0.174533,0,0.495061,-0.060267,-0.130844,0.865045,0.070577,509.386,512.123,511.33,486.17,507.189,636.356
0,-0.087266,0.087266,0.001523,0.785398,0.087266,0.001523,0.785398,0,0.174533,0.191986,-0.174533,0.261799,0.174533,0,0.495067,-0.061721,-0.136359,0.865059,0.074636,509.078,512.132,511.283,486.654,507.357,636.435
0,-0.087266,0.087266,0.001523,0.785398,0.087266,0.001523,0.785398,0,0.174533,0.191986,-0.174533,0.261799,0.174533,0,0.495073,-0.062923,-0.141561,0.865074,0.078637,508.772,512.126,511.24,487.097,507.468,636.462
0,-0.087266,0.087266,0.001523,0.785398,0.087266,0.001523,0.785398,0,0.174533,0.191986,-0.174533,0.261799,0.174533,0,0.495079,-0.063992,-0.14661,0.865088,0.082616,508.464,512.104,511.196,487.476,507.515,636.458
0,-0.087266,0.087266,0.001523,0.785398,0.087266,0.001523,0.785398,0,0.174533,0.191986,-0.174533,0.261799,0.174533,0,0.495084,-0.064939,-0.151583,0.865103,0.086643,509.25,512.103,511.342,487.49,491.239,641.533
0,-0.087266,0.087266,0.001523,0.785398,0.087266,0.001523,0.785398,0,0.174533,0.191986,-0.174533,0.261799,0.174533,0,0.495091,-0.065919,-0.156689,0.865119,0.090769,509.178,512.061,511.353,487.969,502.086,637.781
0,-0.087266,0.087266,0.001523,0.785398,0.087266,0.001523,0.785398,0,0.174533,0.191986,-0.174533,0.261799,0.174533,0,0.495097,-0.066926,-0.161899,0.865136,0.094972,509.145,512.01,511.376,488.214,501.901,637.418
0,-0.087266,0.087266,0.001523,0.785398,0.087266,0.001523,0.785398,0,0.174533,0.191986,-0.174533,0.261799,0.174533,0,0.495105,-0.068174,-0.167633,0.865155,0.099458,509.143,511.944,511.394,488.39,501.153,637.356
0,-0.087266,0.087266,0.001523,0.785398,0.087266,0.001523,0.785398,0,0.174533,0.191986,-0.174533,0.261799,0.174533,0,0.495113,-0.069597,-0.173705,0.865176,0.104107,509.162,511.873,511.435,488.493,500.508,637.356
0,-0.087266,0.087266,0.001523,0.785398,0.087266,0.001523,0.785398,0,0.174533,0.191986,-0.174533,0.261799,0.174533,0,0.495122,-0.071244,-0.180213,0.8652,0.108967,509.204,511.79,511.461,488.573,499.819,637.369
0,-0.087266,0.087266,0.001523,0.785398,0.087266,0.001523,0.785398,0,0.174533,0.191986,-0.174533,0.261799,0.174533,0,0.495133,-0.07336,-0.18758,0.865228,0.114219,509.268,511.739,511.467,488.836,499.137,637.392
0,-0.087266,0.087266,0.001523,0.785398,0.087266,0.001523,0.785398,0,0.174533,0.191986,-0.174533,0.261799,0.174533,0,0.495144,-0.075743,-0.195427,0.865258,0.119683,509.349,511.704,511.515,489.16,498.584,637.457
0,-0.087266,0.087266,0.001523,0.785398,0.087266,0.001523,0.785398,0,0.174533,0.191986,-0.174533,0.261799,0.174533,0,0.495158,-0.07857,-0.204062,0.865292,0.125492,509.447,511.647,511.546,489.474,497.972,637.527
0,-0.087266,0.087266,0.001523,0.785398,0.087266,0.001523,0.785398,0,0.174533,0.191986,-0.174533,0.261799,0.174533,0,0.495174,-0.081942,-0.213643,0.865333,0.131701,509.56,511.572,511.585,489.699,497.424,637.581
0,-0.087266,0.087266,0.001523,0.785398,0.087266,0.001523,0.785398,0,0.174533,0.191986,-0.174533,0.261799,0.174533,0,0.495191,-0.085642,-0.22379,0.865377,0.138146,509.686,511.491,511.629,489.852,496.927,637.619
0,-0.087266,0.087266,0.001523,0.785398,0.087266,0.001523,0.785398,0,0.174533,0.191986,-0.174533,0.261799,0.174533,0,0.495211,-0.089981,-0.235019,0.865428,0.145037,509.824,511.39,511.68,490.02,496.463,637.659
0,-0.087266,0.087266,0.001523,0.785398,0.087266,0.001523,0.785398,0,0.174533,0.191986,-0.174533,0.261799,0.174533,0,0.495233,-0.094834,-0.247104,0.865486,0.152269,509.971,511.277,511.736,490.136,496.049,637.695
0,-0.087266,0.087266,0.001523,0.785398,0.087266,0.001523,0.785398,0,0.174533,0.191986,-0.174533,0.261799,0.174533,0,0.495258,-0.100048,-0.259788,0.865549,0.15974,510.126,511.158,511.791,490.214,495.69,637.719
0,-0.087266,0.087266,0.001523,0.785398,0.087266,0.001523,0.785398,0,0.174533,0.191986,-0.174533,0.261799,0.174533,0,0.495287,-0.106051,-0.273763,0.865622,0.167712,510.288,511.018,511.857,490.331,495.374,637.752
0,-0.087266,0.087266,0.001523,0.785398,0.087266,0.001523,0.785398,0,0.174533,0.191986,-0.174533,0.261799,0.174533,0,0.495318,-0.112478,-0.288419,0.865703,0.175941,510.455,510.871,511.919,490.392,495.113,637.779
0,-0.087266,0.087266,0.001523,0.785398,0.087266,0.001523,0.785398,0,0.174533,0.191986,-0.174533,0.261799,0.174533,0,0.495352,-0.119331,-0.303756,0.86579,0.184426,510.625,510.719,511.987,490.451,494.918,637.796
0,-0.087266,0.087266,0.001523,0.785398,0.087266,0.001523,0.785398,0,0.174533,0.191986,-0.174533,0.261799,0.174533,0,0.495391,-0.126976,-0.320347,0.865891,0.19337,510.797,510.544,512.055,490.578,494.746,637.83
0,-0.087266,0.087266,0.001523,0.785398,0.087266,0.001523,0.785398,0,0.174533,0.191986,-0.174533,0.261799,0.174533,0,0.495434,-0.134987,-0.337509,0.866,0.20252,510.97,510.367,512.123,490.637,494.653,637.853
0,-0.087266,0.087266,0.001523,0.785398,0.087266,0.001523,0.785398,0,0.174533,0.191986,-0.174533,0.261799,0.174533,0,0.49548,-0.143522,-0.355484,0.86612,0.211961,511.141,510.18,512.195,490.743,494.605,637.876
0,-0.087266,0.087266,0.001523,0.785398,0.087266,0.001523,0.785398,0,0.174533,0.191986,-0.174533,0.261799,0.174533,0,0.495544,-0.137645,-0.372679,0.866284,0.235033,511.3,510.231,512.192,490.247,494.811,637.745
0,-0.087266,0.087266,0.001523,0.785398,0.087266,0.001523,0.785398,0,0.174533,0.191986,-0.174533,0.261799,0.174533,0,0.495574,0.026724,0.076025,0.86636,0.246504,511.445,511.559,511.873,489.536,494.936,636.673
0,-0.087266,0.087266,0.001523,0.785398,0.087266,0.001523,0.785398,0,0.174533,0.191986,-0.174533,0.261799,0.174533,0,0.495461,0.127262,0.34425,0.866071,0.216987,511.419,514.548,509.974,479.113,499.227,634.691
0,-0.087266,0.087266,0.001523,0.785398,0.087266,0.001523,0.785398,0,0.174533,0.191986,-0.174533,0.261799,0.174533,0,0.495333,0.134212,0.299419,0.865744,0.165208,511.434,517.233,508.462,482.665,496.583,633.391
0,-0.087266,0.087266,0.001523,0.785398,0.087266,0.001523,0.785398,0,0.174533,0.191986,-0.174533,0.261799,0.174533,0,0.495257,0.152152,0.260413,0.865547,0.10826,511.649,517.988,506.955,492.078,494.818,648.469
0,-0.087266,0.087266,0.001523,0.785398,0.087266,0.001523,0.785398,0,0.174533,0.191986,-0.174533,0.261799,0.174533,0,0.49523,0.172528,0.217392,0.865477,0.044863,511.835,517.191,506.687,504.263,492.573,637.119
0,-0.087266,0.087266,0.001523,0.785398,0.087266,0.001523,0.785398,0,0.174533,0.191986,-0.174533,0.261799,0.174533,0,0.495246,0.185812,0.161122,0.865519,0.024689,512.001,515.277,506.542,521.116,493.583,636.474
0,-0.087266,0.087266,0.001523,0.785398,0.087266,0.001523,0.785398,0,0.174533,0.191986,-0.174533,0.261799,0.174533,0,0.495298,0.995421,-0.015437,0.865712,0.097954,512.099,515.718,508.454,495.123,496.354,636.741
0,-0.087266,0.087266,0.001523,0.785398,0.087266,0.001523,0.785398,0,0.153589,0.244346,-0.244346,0.235619,0.200713,0,0.449259,0.967437,-0.10116,0.779141,0.131792,511.033,516.162,509.929,491.861,477.431,631.749
0,-0.087266,0.087266,0.001523,0.785398,0.087266,0.001523,0.785398,0,0.132645,0.296706,-0.314159,0.209439,0.226893,0,0.40322,0.939454,-0.186883,0.69257,0.16563,510.047,516.484,510.797,495.604,475.847,631.277
0,-0.087266,0.087266,0.001523,0.785398,0.087266,0.001523,0.785398,0,0.111701,0.349066,-0.383973,0.183259,0.253073,0,0.357181,0.91147,-0.272605,0.605998,0.199467,509.064,516.438,511.659,499.896,475.279,628.849
0,-0.087266,0.087266,0.001523,0.785398,0.087266,0.001523,0.785398,0,0.090757,0.401426,-0.453786,0.157079,0.279253,0,0.311141,0.883487,-0.358328,0.519427,0.233305,508.338,516.995,512.677,480.673,475.768,643.175
0,-0.087266,0.087266,0.001523,0.785398,0.087266,0.001523,0.785398,0,0.069813,0.453786,-0.523599,0.1309,0.305432,0,0.265102,0.855503,-0.444051,0.432856,0.267143,507.487,517.371,513.321,484.369,474.58,632.365
0,-0.087266,0.087266,0.001523,0.785398,0.087266,0.001523,0.785398,0,0.048869,0.506145,-0.593412,0.10472,0.331612,0,0.219063,0.827519,-0.529774,0.346285,0.300981,506.788,519.54,514.485,445.959,471.891,603.729
0,-0.087266,0.087266,0.001523,0.785398,0.087266,0.001523,0.785398,0,0.027925,0.558505,-0.663225,0.07854,0.357792,0,0.173024,0.799536,-0.615497,0.259714,0.334819,505.654,517.582,517.764,482.404,483.262,618.177
0,-0.087266,0.087266,0.001523,0.785398,0.087266,0.001523,0.785398,0,0.006981,0.610865,-0.733039,0.05236,0.383972,0,0.126985,0.771552,-0.701219,0.173142,0.368656,504.515,516.153,521.143,488.625,482.648,609.713
0,-0.087266,0.087266,0.001523,0.785398,0.087266,0.001523,0.785398,0,-0.013963,0.663225,-0.802852,0.02618,0.410152,0,0.080946,0.743569,-0.786942,0.086571,0.402494,503.592,515.693,523.852,471.772,480.983,632.075
0,-0.087266,0.087266,0.001523,0.785398,0.087266,0.001523,0.785398,0,-0.034907,0.715585,-0.872665,0,0.436332,0,0.034907,0.715585,-0.872665,0,0.436332,502.85,515.559,523.492,469.987,472.754,620.587
0,-0.087266,0.087266,0.001523,0.785398,0.087266,0.001523,0.785398,0,-0.034907,0.715585,-0.872665,0,0.436332,0,0.034907,0.715585,-0.872665,0,0.436332,505.134,516.852,522.312,480.267,490.981,628.035
0,-0.087266,0.087266,0.001523,0.785398,0.087266,0.001523,0.785398,0,-0.034907,0.715585,-0.872665,0,0.436332,0,0.034907,0.715585,-0.872665,0,0.436332,507.465,518.789,521.455,474.767,490.434,630.271
0,-0.087266,0.087266,0.001523,0.785398,0.087266,0.001523,0.785398,0,-0.034907,0.715585,-0.872665,0,0.436332,0,0.034907,0.715585,-0.872665,0,0.436332,509.065,519.124,519.241,479.388,478.344,641.614
0,-0.087266,0.087266,0.001523,0.785398,0.087266,0.001523,0.785398,0,-0.034907,0.715585,-0.872665,0,0.436332,0,0.034907,0.715585,-0.872665,0,0.436332,510.703,519.556,518.822,476.203,481.747,642.727
0,-0.087266,0.087266,0.001523,0.785398,0.087266,0.001523,0.785398,0,-0.034907,0.715585,-0.872665,0,0.436332,0,0.034907,0.715585,-0.872665,0,0.436332,512.572,519.997,518.295,476.406,481.917,642.208
0,-0.087266,0.087266,0.001523,0.785398,0.087266,0.001523,0.785398,0,-0.034907,0.715585,-0.872665,0,0.436332,0,0.034907,0.715585,-0.872665,0,0.436332,514.997,521.436,517.43,474.111,494.75,631.531
0,-0.087266,0.087266,0.001523,0.785398,0.087266,0.001523,0.785398,0,-0.034907,0.715585,-0.872665,0,0.436332,0,0.034907,0.715585,-0.872665,0,0.436332,517.547,523.688,516.318,469.882,501.805,633.163
0,-0.087266,0.087266,0.001523,0.785398,0.087266,0.001523,0.785398,0,-0.034907,0.715585,-0.872665,0,0.436332,0,0.034907,0.715585,-0.872665,0,0.436332,519.59,521.816,514.947,489.045,496.887,640.649
0,-0.087266,0.087266,0.001523,0.785398,0.087266,0.001523,0.785398,0,-0.034907,0.715585,-0.872665,0,0.436332,0,0.034907,0.715585,-0.872665,0,0.436332,519.299,519.78,514.459,482.366,487.422,636.691
0,-0.087266,0.087266,0.001523,0.785398,0.087266,0.001523,0.785398,0,-0.034907,0.715585,-0.872665,0,0.436332,0,0.034907,0.715585,-0.872665,0,0.436332,520.036,517.73,514.757,480.229,489.341,638.185
0,-0.087266,0.087266,0.001523,0.785398,0.087266,0.001523,0.785398,0,-0.034907,0.715585,-0.872665,0,0.436332,0,0.034907,0.715585,-0.872665,0,0.436332,520.802,515.702,515.061,479.812,488.613,637.488
0,-0.087266,0.087266,0.001523,0.785398,0.087266,0.001523,0.785398,0,-0.034907,0.715585,-0.872665,0,0.436332,0,0.034907,0.715585,-0.872665,0,0.436332,521.599,513.642,515.338,478.422,488.03,636.576
0,-0.087266,0.087266,0.001523,0.785398,0.087266,0.001523,0.785398,0,-0.034907,0.715585,-0.872665,0,0.436332,0,0.034907,0.715585,-0.872665,0,0.436332,522.406,511.653,515.578,477.855,487.303,635.743
0,-0.087266,0.087266,0.001523,0.785398,0.087266,0.001523,0.785398,0,-0.034907,0.715585,-0.872665,0,0.436332,0,0.034907,0.715585,-0.872665,0,0.436332,523.253,509.732,515.793,477.487,487.273,634.551
0,-0.087266,0.087266,0.001523,0.785398,0.087266,0.001523,0.785398,0,-0.034907,0.715585,-0.872665,0,0.436332,0,0.034907,0.715585,-0.872665,0,0.436332,524.076,508.484,515.954,474.873,488.725,633.384
0,-0.087266,0.087266,0.001523,0.785398,0.087266,0.001523,0.785398,0,-0.034907,0.715585,-0.872665,0,0.436332,0,0.034907,0.715585,-0.872665,0,0.436332,524.747,508.052,516.16,456.115,494.503,642.28
0,-0.087266,0.087266,0.001523,0.785398,0.087266,0.001523,0.785398,0,-0.034907,0.715585,-0.872665,0,0.436332,0,0.034907,0.715585,-0.872665,0,0.436332,525.397,507.871,516.228,465.597,496.919,626.466
0,-0.087266,0.087266,0.001523,0.785398,0.087266,0.001523,0.785398,0,-0.034907,0.715585,-0.872665,0,0.436332,0,0.034907,0.715585,-0.872665,0,0.436332,525.739,507.621,516.175,457.339,505.06,655.759
0,-0.087266,0.087266,0.001523,0.785398,0.087266,0.001523,0.785398,0,-0.034907,0.715585,-0.872665,0,0.436332,0,0.034907,0.715585,-0.872665,0,0.436332,525.237,507.457,515.734,466.827,511.654,639.03
0,-0.087266,0.087266,0.001523,0.785398,0.087266,0.001523,0.785398,0,-0.034907,0.715585,-0.872665,0,0.436332,0,0.034907,0.715585,-0.872665,0,0.436332,525.148,506.993,515.38,463.622,517.441,632.279
0,-0.087266,0.087266,0.001523,0.785398,0.087266,0.001523,0.785398,0,-0.034907,0.715585,-0.872665,0,0.436332,0,0.034907,0.715585,-0.872665,0,0.436332,524.772,507.685,516.122,465.56,540.822,659.625
0,-0.087266,0.087266,0.001523,0.785398,0.087266,0.001523,0.785398,0,-0.034907,0.715585,-0.872665,0,0.436332,0,0.034907,0.715585,-0.872665,0,0.436332,523.75,508.083,515.638,482.39,517.377,627.084
0,-0.087266,0.087266,0.001523,0.785398,0.087266,0.001523,0.785398,0,-0.034907,0.715585,-0.872665,0,0.436332,0,0.034907,0.715585,-0.872665,0,0.436332,522.803,508.702,515.9,477.251,541.834,641.249
0,-0.087266,0.087266,0.001523,0.785398,0.087266,0.001523,0.785398,0,-0.034907,0.715585,-0.872665,0,0.436332,0,0.034907,0.715585,-0.872665,0,0.436332,521.571,509.075,515.125,489.682,545.495,630.069
0,-0.087266,0.087266,0.001523,0.785398,0.087266,0.001523,0.785398,0,-0.034907,0.715585,-0.872665,0,0.436332,0,0.034907,0.715585,-0.872665,0,0.436332,520.281,509.414,514.439,487.122,545.729,631.251
0,-0.087266,0.087266,0.001523,0.785398,0.087266,0.001523,0.785398,0,-0.034907,0.715585,-0.872665,0,0.436332,0,0.034907,0.715585,-0.872665,0,0.436332,519.024,509.789,514.059,486.539,547.038,631.432
0,-0.087266,0.087266,0.001523,0.785398,0.087266,0.001523,0.785398,0,-0.034907,0.715585,-0.872665,0,0.436332,0,0.034907,0.715585,-0.872665,0,0.436332,517.808,509.533,513.724,487.721,546.92,645.51
0,-0.087266,0.087266,0.001523,0.785398,0.087266,0.001523,0.785398,0,-0.034907,0.715585,-0.872665,0,0.436332,0,0.034907,0.715585,-0.872665,0,0.436332,516.574,509.597,513.362,484.162,548.221,630.71
0,-0.087266,0.087266,0.001523,0.785398,0.087266,0.001523,0.785398,0,-0.034907,0.715585,-0.872665,0,0.436332,0,0.034907,0.715585,-0.872665,0,0.436332,515.74,509.662,513.108,483.937,538.38,631.555
0,-0.087266,0.087266,0.001523,0.785398,0.087266,0.001523,0.785398,0,-0.034907,0.715585,-0.872665,0,0.436332,0,0.034907,0.715585,-0.872665,0,0.436332,514.695,509.77,512.813,483.95,543.789,630.522
0,-0.087266,0.087266,0.001523,0.785398,0.087266,0.001523,0.785398,0,-0.034907,0.715585,-0.872665,0,0.436332,0,0.034907,0.715585,-0.872665,0,0.436332,513.609,509.9,512.511,484.041,544.559,630.222
0,-0.087266,0.087266,0.001523,0.785398,0.087266,0.001523,0.785398,0,-0.034907,0.715585,-0.872665,0,0.436332,0,0.034907,0.715585,-0.872665,0,0.436332,514.59,509.976,512.195,483.337,536.752,637.909
0,-0.087266,0.087266,0.001523,0.785398,0.087266,0.001523,0.785398,0,-0.034907,0.715585,-0.872665,0,0.436332,0,0.034907,0.715585,-0.872665,0,0.436332,514.441,510.118,512.047,482.544,531.957,635.461
0,-0.087266,0.087266,0.001523,0.785398,0.087266,0.001523,0.785398,0,-0.034907,0.715585,-0.872665,0,0.436332,0,0.034907,0.715585,-0.872665,0,0.436332,513.07,510.467,511.956,480.778,531.452,633.516
0,-0.087266,0.087266,0.001523,0.785398,0.087266,0.001523,0.785398,0,-0.034907,0.715585,-0.872665,0,0.436332,0,0.034907,0.715585,-0.872665,0,0.436332,511.577,510.672,511.898,468.864,530.322,632.318
0,-0.087266,0.087266,0.001523,0.785398,0.087266,0.001523,0.785398,0,-0.034907,0.715585,-0.872665,0,0.436332,0,0.034907,0.715585,-0.872665,0,0.436332,510.717,510.939,512.523,479.787,536.429,633.741
0,-0.087266,0.087266,0.001523,0.785398,0.087266,0.001523,0.785398,0,-0.034907,0.715585,-0.872665,0,0.436332,0,0.034907,0.715585,-0.872665,0,0.436332,510.03,511.206,512.212,481.502,535.906,634.208
0,-0.087266,0.087266,0.001523,0.785398,0.087266,0.001523,0.785398,0,-0.034907,0.715585,-0.872665,0,0.436332,0,0.034907,0.715585,-0.872665,0,0.436332,509.465,511.217,511.939,483.395,532.852,633.362
0,-0.087266,0.087266,0.001523,0.785398,0.087266,0.001523,0.785398,0,-0.034907,0.715585,-0.872665,0,0.436332,0,0.034907,0.715585,-0.872665,0,0.436332,509.023,511.281,511.808,491.667,529.622,630.744
0,-0.087266,0.087266,0.001523,0.785398,0.087266,0.001523,0.785398,0,-0.034907,0.715585,-0.872665,0,0.436332,0,0.034907,0.715585,-0.872665,0,0.436332,508.62,511.426,511.663,488.701,528.527,632.979
0,-0.087266,0.087266,0.001523,0.785398,0.087266,0.001523,0.785398,0,-0.034907,0.715585,-0.872665,0,0.436332,0,0.034907,0.715585,-0.872665,0,0.436332,508.246,511.612,511.508,487.495,527.258,633.699
0,-0.087266,0.087266,0.001523,0.785398,0.087266,0.001523,0.785398,0,-0.034907,0.715585,-0.872665,0,0.436332,0,0.034907,0.715585,-0.872665,0,0.436332,507.966,511.124,511.27,494.077,524.222,644.801
0,-0.087266,0.087266,0.001523,0.785398,0.087266,0.001523,0.785398,0,-0.034907,0.715585,-0.872665,0,0.436332,0,0.034907,0.715585,-0.872665,0,0.436332,507.833,511.511,511.147,485.414,520.539,637.704
0,-0.087266,0.087266,0.001523,0.785398,0.087266,0.001523,0.785398,0,-0.034907,0.715585,-0.872665,0,0.436332,0,0.034907,0.715585,-0.872665,0,0.436332,507.725,511.906,511.056,484.568,519.992,635.349
0,-0.087266,0.087266,0.001523,0.785398,0.087266,0.001523,0.785398,0,-0.034907,0.715585,-0.872665,0,0.436332,0,0.034907,0.715585,-0.872665,0,0.436332,507.615,512.306,510.965,483.77,519.509,634.858
0,-0.087266,0.087266,0.001523,0.785398,0.087266,0.001523,0.785398,0,-0.034907,0.715585,-0.872665,0,0.436332,0,0.034907,0.715585,-0.872665,0,0.436332,507.504,512.67,510.865,483.06,519.092,634.645
0,-0.087266,0.087266,0.001523,0.785398,0.087266,0.001523,0.785398,0,-0.034907,0.715585,-0.872665,0,0.436332,0,0.034907,0.715585,-0.872665,0,0.436332,507.537,512.794,510.665,509.587,515.307,645.537
0,-0.087266,0.087266,0.001523,0.785398,0.087266,0.001523,0.785398,0,-0.034907,0.715585,-0.872665,0,0.436332,0,0.034907,0.715585,-0.872665,0,0.436332,507.602,513.157,510.605,487.877,514.61,637.222
0,-0.087266,0.087266,0.001523,0.785398,0.087266,0.001523,0.785398,0,-0.034907,0.715585,-0.872665,0,0.436332,0,0.034907,0.715585,-0.872665,0,0.436332,507.687,513.524,510.556,487.478,513.759,636.656
0,-0.087266,0.087266,0.001523,0.785398,0.087266,0.001523,0.785398,0,-0.034907,0.715585,-0.872665,0,0.436332,0,0.034907,0.715585,-0.872665,0,0.436332,507.889,513.886,510.554,487.69,510.723,636.777
0,-0.087266,0.087266,0.001523,0.785398,0.087266,0.001523,0.785398,0,-0.034907,0.715585,-0.872665,0,0.436332,0,0.034907,0.715585,-0.872665,0,0.436332,508.102,515.543,510.462,481.353,510.277,634.149
0,-0.087266,0.087266,0.001523,0.785398,0.087266,0.001523,0.785398,0,-0.034907,0.715585,-0.872665,0,0.436332,0,0.034907,0.715585,-0.872665,0,0.436332,508.735,516.093,511.073,465.995,505.814,642.256
0,-0.087266,0.087266,0.001523,0.785398,0.087266,0.001523,0.785398,0,-0.034907,0.715585,-0.872665,0,0.436332,0,0.034907,0.715585,-0.872665,0,0.436332,509.108,516.617,511.243,470.23,506.048,630.324
0,-0.087266,0.087266,0.001523,0.785398,0.087266,0.001523,0.785398,0,-0.034907,0.715585,-0.872665,0,0.436332,0,0.034907,0.715585,-0.872665,0,0.436332,509.451,517.114,511.387,472.536,506.28,632.081
0,-0.087266,0.087266,0.001523,0.785398,0.087266,0.001523,0.785398,0,-0.034907,0.715585,-0.872665,0,0.436332,0,0.034907,0.715585,-0.872665,0,0.436332,510.18,514.918,510.869,488.164,532.501,644.249
0,-0.087266,0.087266,0.001523,0.785398,0.087266,0.001523,0.785398,0,-0.034907,0.715585,-0.872665,0,0.436332,0,0.034907,0.715585,-0.872665,0,0.436332,508.937,514.536,510.956,472.221,504.063,634.579
0,-0.087266,0.087266,0.001523,0.785398,0.087266,0.001523,0.785398,0,-0.034907,0.715585,-0.872665,0,0.436332,0,0.034907,0.715585,-0.872665,0,0.436332,509.672,514.51,511.099,478.183,507.538,629.51
0,-0.087266,0.087266,0.001523,0.785398,0.087266,0.001523,0.785398,0,-0.034907,0.715585,-0.872665,0,0.436332,0,0.034907,0.715585,-0.872665,0,0.436332,509.435,514.23,511.046,468.935,507.853,640.584
0,-0.087266,0.087266,0.001523,0.785398,0.087266,0.001523,0.785398,0,-0.034907,0.715585,-0.872665,0,0.436332,0,0.034907,0.715585,-0.872665,0,0.436332,509.063,514.049,511.139,473.867,505.081,632.87
0,-0.087266,0.087266,0.001523,0.785398,0.087266,0.001523,0.785398,0,-0.034907,0.715585,-0.872665,0,0.436332,0,0.034907,0.715585,-0.872665,0,0.436332,509.102,513.914,511.207,474.004,505.879,633.993
0,-0.087266,0.087266,0.001523,0.785398,0.087266,0.001523,0.785398,0,-0.034907,0.715585,-0.872665,0,0.436332,0,0.034907,0.715585,-0.872665,0,0.436332,509.51,513.806,511.362,474.222,500.717,638.865
0,-0.087266,0.087266,0.001523,0.785398,0.087266,0.001523,0.785398,0,-0.034907,0.715585,-0.872665,0,0.436332,0,0.034907,0.715585,-0.872665,0,0.436332,509.861,513.296,511.392,469.15,503.009,632.204
0,-0.087266,0.087266,0.001523,0.785398,0.087266,0.001523,0.785398,0,-0.034907,0.715585,-0.872665,0,0.436332,0,0.034907,0.715585,-0.872665,0,0.436332,510.181,513.173,511.481,473.192,502.935,633.85
0,-0.087266,0.087266,0.001523,0.785398,0.087266,0.001523,0.785398,0,-0.034907,0.715585,-0.872665,0,0.436332,0,0.034907,0.715585,-0.872665,0,0.436332,510.488,513.033,511.569,473.022,503.009,633.98
0,-0.087266,0.087266,0.001523,0.785398,0.087266,0.001523,0.785398,0,-0.034907,0.715585,-0.872665,0,0.436332,0,0.034907,0.715585,-0.872665,0,0.436332,510.914,512.735,511.693,469.327,500.057,635.103
0,-0.087266,0.087266,0.001523,0.785398,0.087266,0.001523,0.785398,0,-0.034907,0.715585,-0.872665,0,0.436332,0,0.034907,0.715585,-0.872665,0,0.436332,511.279,512.515,511.794,471.266,501.505,632.619
0,-0.087266,0.087266,0.001523,0.785398,0.087266,0.001523,0.785398,0,-0.034907,0.715585,-0.872665,0,0.436332,0,0.034907,0.715585,-0.872665,0,0.436332,511.617,512.308,511.888,471.503,502.045,633.07
0,-0.087266,0.087266,0.001523,0.785398,0.087266,0.001523,0.785398,0,-0.034907,0.715585,-0.872665,0,0.436332,0,0.034907,0.715585,-0.872665,0,0.436332,511.927,512.119,511.975,471.867,502.694,633.272
0,-0.087266,0.087266,0.001523,0.785398,0.087266,0.001523,0.785398,0,-0.034907,0.715585,-0.872665,0,0.436332,0,0.034907,0.715585,-0.872665,0,0.436332,512.205,511.951,512.052,472.3,503.449,633.452
0,-0.087266,0.087266,0.001523,0.785398,0.087266,0.001523,0.785398,0,-0.034907,0.715585,-0.872665,0,0.436332,0,0.034907,0.715585,-0.872665,0,0.436332,512.448,511.804,512.12,472.773,504.275,633.633
0,-0.087266,0.087266,0.001523,0.785398,0.087266,0.001523,0.785398,0,-0.034907,0.715585,-0.872665,0,0.436332,0,0.034907,0.715585,-0.872665,0,0.436332,512.657,511.679,512.176,473.273,505.131,633.801
0,-0.087266,0.087266,0.001523,0.785398,0.087266,0.001523,0.785398,0,-0.034907,0.715585,-0.872665,0,0.436332,0,0.034907,0.715585,-0.872665,0,0.436332,512.848,511.559,512.228,473.356,505.638,634.119
0,-0.087266,0.087266,0.001523,0.785398,0.087266,0.001523,0.785398,0,-0.034907,0.715585,-0.872665,0,0.436332,0,0.034907,0.715585,-0.872665,0,0.436332,513.023,511.425,512.275,473.253,506.132,634.158
0,-0.087266,0.087266,0.001523,0.785398,0.087266,0.001523,0.785398,0,-0.034907,0.715585,-0.872665,0,0.436332,0,0.034907,0.715585,-0.872665,0,0.436332,513.181,511.273,512.316,473.09,506.664,634.097
0,-0.087266,0.087266,0.001523,0.785398,0.087266,0.001523,0.785398,0,-0.034907,0.715585,-0.872665,0,0.436332,0,0.034907,0.715585,-0.872665,0,0.436332,513.322,511.105,512.351,472.944,507.194,634.029
0,-0.087266,0.087266,0.001523,0.785398,0.087266,0.001523,0.785398,0,-0.034907,0.715585,-0.872665,0,0.436332,0,0.034907,0.715585,-0.872665,0,0.436332,513.449,510.922,512.382,472.82,507.71,633.981
0,-0.087266,0.087266,0.001523,0.785398,0.087266,0.001523,0.785398,0,-0.034907,0.715585,-0.872665,0,0.436332,0,0.034907,0.715585,-0.872665,0,0.436332,513.572,510.725,512.411,472.738,507.974,634.133
0,-0.087266,0.087266,0.001523,0.785398,0.087266,0.001523,0.785398,0,-0.034907,0.715585,-0.872665,0,0.436332,0,0.034907,0.715585,-0.872665,0,0.436332,513.703,510.517,512.427,472.744,508.124,634.212
0,-0.087266,0.087266,0.001523,0.785398,0.087266,0.001523,0.785398,0,-0.034907,0.715585,-0.872665,0,0.436332,0,0.034907,0.715585,-0.872665,0,0.436332,513.827,510.298,512.468,472.767,508.274,634.185
0,-0.087266,0.087266,0.001523,0.785398,0.087266,0.001523,0.785398,0,-0.034907,0.715585,-0.872665,0,0.436332,0,0.034907,0.715585,-0.872665,0,0.436332,513.958,510.071,512.502,472.854,508.412,634.162
0,-0.087266,0.087266,0.001523,0.785398,0.087266,0.001523,0.785398,0,-0.034907,0.715585,-0.872665,0,0.436332,0,0.034907,0.715585,-0.872665,0,0.436332,513.933,510.179,512.514,478.74,511.339,640.544
0,-0.087266,0.087266,0.001523,0.785398,0.087266,0.001523,0.785398,0,-0.034907,0.715585,-0.872665,0,0.436332,0,0.034907,0.715585,-0.872665,0,0.436332,513.958,510.246,512.508,479.013,511.302,634.986
0,-0.087266,0.087266,0.001523,0.785398,0.087266,0.001523,0.785398,0,-0.034907,0.715585,-0.872665,0,0.436332,0,0.034907,0.715585,-0.872665,0,0.436332,513.966,510.325,512.508,479.328,511.854,635.495
0,-0.087266,0.087266,0.001523,0.785398,0.087266,0.001523,0.785398,0,-0.034907,0.715585,-0.872665,0,0.436332,0,0.034907,0.715585,-0.872665,0,0.436332,513.917,510.427,512.507,479.896,512.146,635.609
0,-0.087266,0.087266,0.001523,0.785398,0.087266,0.001523,0.785398,0,-0.034907,0.715585,-0.872665,0,0.436332,0,0.034907,0.715585,-0.872665,0,0.436332,513.827,510.545,512.509,480.316,512.429,635.629
0,-0.087266,0.087266,0.001523,0.785398,0.087266,0.001523,0.785398,0,-0.034907,0.715585,-0.872665,0,0.436332,0,0.034907,0.715585,-0.872665,0,0.436332,513.69,510.886,512.553,488.4,512.833,637.445
0,-0.087266,0.087266,0.001523,0.785398,0.087266,0.001523,0.785398,0,-0.034907,0.715585,-0.872665,0,0.436332,0,0.034907,0.715585,-0.872665,0,0.436332,513.483,511.297,512.578,481.14,512.902,635.215
0,-0.087266,0.087266,0.001523,0.785398,0.087266,0.001523,0.785398,0,-0.034907,0.715585,-0.872665,0,0.436332,0,0.034907,0.715585,-0.872665,0,0.436332,513.147,511.413,512.55,479.16,516.407,636.847
0,-0.087266,0.087266,0.001523,0.785398,0.087266,0.001523,0.785398,0,-0.034907,0.715585,-0.872665,0,0.436332,0,0.034907,0.715585,-0.872665,0,0.436332,513.4,511.615,512.401,482.365,521.188,637.04
0,-0.087266,0.087266,0.001523,0.785398,0.087266,0.001523,0.785398,0,-0.034907,0.715585,-0.872665,0,0.436332,0,0.034907,0.715585,-0.872665,0,0.436332,513.215,511.782,512.341,481.83,518.007,635.722
0,-0.087266,0.087266,0.001523,0.785398,0.087266,0.001523,0.785398,0,-0.034907,0.715585,-0.872665,0,0.436332,0,0.034907,0.715585,-0.872665,0,0.436332,513.015,511.918,512.283,481.241,517.959,635.526
0,-0.087266,0.087266,0.001523,0.785398,0.087266,0.001523,0.785398,0,-0.034907,0.715585,-0.872665,0,0.436332,0,0.034907,0.715585,-0.872665,0,0.436332,512.82,512.026,512.227,480.629,517.943,635.417
0,-0.087266,0.087266,0.001523,0.785398,0.087266,0.001523,0.785398,0,-0.034907,0.715585,-0.872665,0,0.436332,0,0.034907,0.715585,-0.872665,0,0.436332,512.633,512.108,512.173,480.042,517.844,635.324
0,-0.087266,0.087266,0.001523,0.785398,0.087266,0.001523,0.785398,0,-0.034907,0.715585,-0.872665,0,0.436332,0,0.034907,0.715585,-0.872665,0,0.436332,512.459,512.165,512.123,479.505,517.675,635.241
0,-0.087266,0.087266,0.001523,0.785398,0.087266,0.001523,0.785398,0,-0.034907,0.715585,-0.872665,0,0.436332,0,0.034907,0.715585,-0.872665,0,0.436332,512.299,512.201,512.077,479.028,517.449,635.17
0,-0.087266,0.087266,0.001523,0.785398,0.087266,0.001523,0.785398,0,-0.034907,0.715585,-0.872665,0,0.436332,0,0.034907,0.715585,-0.872665,0,0.436332,512.153,512.219,512.035,478.618,517.181,635.113
0,-0.087266,0.087266,0.001523,0.785398,0.087266,0.001523,0.785398,0,-0.034907,0.715585,-0.872665,0,0.436332,0,0.034907,0.715585,-0.872665,0,0.436332,512.035,512.223,512.002,478.294,516.641,635.02
0,-0.087266,0.087266,0.001523,0.785398,0.087266,0.001523,0.785398,0,-0.034907,0.715585,-0.872665,0,0.436332,0,0.034907,0.715585,-0.872665,0,0.436332,511.943,512.216,511.976,478.015,516.125,635.016
0,-0.087266,0.087266,0.001523,0.785398,0.087266,0.001523,0.785398,0,-0.034907,0.715585,-0.872665,0,0.436332,0,0.034907,0.715585,-0.872665,0,0.436332,511.873,512.2,511.956,477.807,515.651,635.026
0,-0.087266,0.087266,0.001523,0.785398,0.087266,0.001523,0.785398,0,-0.034907,0.715585,-0.872665,0,0.436332,0,0.034907,0.715585,-0.872665,0,0.436332,511.822,512.18,511.938,477.656,515.241,635.046
0,-0.087266,0.087266,0.001523,0.785398,0.087266,0.001523,0.785398,0,-0.034907,0.715585,-0.872665,0,0.436332,0,0.034907,0.715585,-0.872665,0,0.436332,511.787,512.155,511.925,477.557,514.895,635.073
0,-0.087266,0.087266,0.001523,0.785398,0.087266,0.001523,0.785398,0,-0.034907,0.715585,-0.872665,0,0.436332,0,0.034907,0.715585,-0.872665,0,0.436332,511.765,512.13,511.915,477.503,514.59,635.103
0,-0.087266,0.087266,0.001523,0.785398,0.087266,0.001523,0.785398,0,-0.034907,0.715585,-0.872665,0,0.436332,0,0.034907,0.715585,-0.872665,0,0.436332,511.755,512.104,511.908,477.486,514.333,635.132
0,-0.087266,0.087266,0.001523,0.785398,0.087266,0.001523,0.785398,0,-0.034907,0.715585,-0.872665,0,0.436332,0,0.034907,0.715585,-0.872665,0,0.436332,511.591,512.097,511.826,477.845,518.192,635.107
0,-0.087266,0.087266,0.001523,0.785398,0.087266,0.001523,0.785398,0,-0.034907,0.715585,-0.872665,0,0.436332,0,0.034907,0.715585,-0.872665,0,0.436332,511.462,512.085,511.84,477.819,513.372,635.192
0,-0.087266,0.087266,0.001523,0.785398,0.087266,0.001523,0.785398,0,-0.034907,0.715585,-0.872665,0,0.436332,0,0.034907,0.715585,-0.872665,0,0.436332,511.401,512.077,511.851,477.839,512.983,635.306
0,-0.087266,0.087266,0.001523,0.785398,0.087266,0.001523,0.785398,0,-0.034907,0.715585,-0.872665,0,0.436332,0,0.034907,0.715585,-0.872665,0,0.436332,511.474,512.075,511.849,477.859,513.145,635.524
0,-0.087266,0.087266,0.001523,0.785398,0.087266,0.001523,0.785398,0,-0.034907,0.715585,-0.872665,0,0.436332,0,0.034907,0.715585,-0.872665,0,0.436332,511.499,512.074,511.855,477.882,512.719,635.455
0,-0.087266,0.087266,0.001523,0.785398,0.087266,0.001523,0.785398,0,-0.034907,0.715585,-0.872665,0,0.436332,0,0.034907,0.715585,-0.872665,0,0.436332,511.53,512.072,511.864,477.883,512.489,635.469
0,-0.087266,0.087266,0.001523,0.785398,0.087266,0.001523,0.785398,0,-0.034907,0.715585,-0.872665,0,0.436332,0,0.034907,0.715585,-0.872665,0,0.436332,511.567,512.071,511.874,477.868,512.309,635.475
0,-0.087266,0.087266,0.001523,0.785398,0.087266,0.001523,0.785398,0,-0.034907,0.715585,-0.872665,0,0.436332,0,0.034907,0.715585,-0.872665,0,0.436332,511.607,512.069,511.885,477.83,512.194,635.486
0,-0.087266,0.087266,0.001523,0.785398,0.087266,0.001523,0.785398,0,-0.034907,0.715585,-0.872665,0,0.436332,0,0.034907,0.715585,-0.872665,0,0.436332,511.648,512.066,511.897,477.787,512.122,635.483
0,-0.087266,0.087266,0.001523,0.785398,0.087266,0.001523,0.785398,0,-0.034907,0.715585,-0.872665,0,0.436332,0,0.034907,0.715585,-0.872665,0,0.436332,511.69,512.06,511.909,477.749,512.074,635.468
0,-0.087266,0.087266,0.001523,0.785398,0.087266,0.001523,0.785398,0,-0.034907,0.715585,-0.872665,0,0.436332,0,0.034907,0.715585,-0.872665,0,0.436332,511.732,512.054,511.921,477.725,512.039,635.45
0,-0.087266,0.087266,0.001523,0.785398,0.087266,0.001523,0.785398,0,-0.034907,0.715585,-0.872665,0,0.436332,0,0.034907,0.715585,-0.872665,0,0.436332,511.774,512.047,511.932,477.71,512.015,635.436
0,-0.087266,0.087266,0.001523,0.785398,0.087266,0.001523,0.785398,0,-0.034907,0.715585,-0.872665,0,0.436332,0,0.034907,0.715585,-0.872665,0,0.436332,511.815,512.04,511.944,477.702,512.004,635.424
0,-0.087266,0.087266,0.001523,0.785398,0.087266,0.001523,0.785398,0,-0.034907,0.715585,-0.872665,0,0.436332,0,0.034907,0.715585,-0.872665,0,0.436332,511.856,512.032,511.956,477.702,512.005,635.416
0,-0.087266,0.087266,0.001523,0.785398,0.087266,0.001523,0.785398,0,-0.034907,0.715585,-0.872665,0,0.436332,0,0.034907,0.715585,-0.872665,0,0.436332,511.896,512.025,511.967,477.707,512.017,635.41
0,-0.087266,0.087266,0.001523,0.785398,0.087266,0.001523,0.785398,0,-0.034907,0.715585,-0.872665,0,0.436332,0,0.034907,0.715585,-0.872665,0,0.436332,511.934,512.019,511.978,477.719,512.039,635.407
0,-0.087266,0.087266,0.001523,0.785398,0.087266,0.001523,0.785398,0,-0.034907,0.715585,-0.872665,0,0.436332,0,0.034907,0.715585,-0.872665,0,0.436332,511.971,512.013,511.988,477.73,512.068,635.402
0,-0.087266,0.087266,0.001523,0.785398,0.087266,0.001523,0.785398,0,-0.034907,0.715585,-0.872665,0,0.436332,0,0.034907,0.715585,-0.872665,0,0.436332,512.006,512.008,511.998,477.746,512.109,635.402
0,-0.087266,0.087266,0.001523,0.785398,0.087266,0.001523,0.785398,0,-0.034907,0.715585,-0.872665,0,0.436332,0,0.034907,0.715585,-0.872665,0,0.436332,512.039,512.003,512.007,477.764,512.157,635.401
0,-0.087266,0.087266,0.001523,0.785398,0.087266,0.001523,0.785398,0,-0.034907,0.715585,-0.872665,0,0.436332,0,0.034907,0.715585,-0.872665,0,0.436332,512.07,511.999,512.016,477.781,512.212,635.401
0,-0.087266,0.087266,0.001523,0.785398,0.087266,0.001523,0.785398,0,-0.034907,0.715585,-0.872665,0,0.436332,0,0.034907,0.715585,-0.872665,0,0.436332,512.094,511.993,512.023,477.713,512.389,635.433
0,-0.087266,0.087266,0.001523,0.785398,0.087266,0.001523,0.785398,0,-0.034907,0.715585,-0.872665,0,0.436332,0,0.034907,0.715585,-0.872665,0,0.436332,512.114,511.988,512.028,477.742,512.481,635.386
0,-0.087266,0.087266,0.001523,0.785398,0.087266,0.001523,0.785398,0,-0.034907,0.715585,-0.872665,0,0.436332,0,0.034907,0.715585,-0.872665,0,0.436332,512.127,511.98,512.032,477.697,512.671,635.404
0,-0.087266,0.087266,0.001523,0.785398,0.087266,0.001523,0.785398,0,-0.034907,0.715585,-0.872665,0,0.436332,0,0.034907,0.715585,-0.872665,0,0.436332,512.136,511.973,512.035,477.733,512.773,635.357
0,-0.087266,0.087266,0.001523,0.785398,0.087266,0.001523,0.785398,0,-0.034907,0.715585,-0.872665,0,0.436332,0,0.034907,0.715585,-0.872665,0,0.436332,512.141,511.968,512.036,477.761,512.87,635.347
0,-0.087266,0.087266,0.001523,0.785398,0.087266,0.001523,0.785398,0,-0.034907,0.715585,-0.872665,0,0.436332,0,0.034907,0.715585,-0.872665,0,0.436332,512.144,511.963,512.037,477.792,512.959,635.346
0,-0.087266,0.087266,0.001523,0.785398,0.087266,0.001523,0.785398,0,-0.034907,0.715585,-0.872665,0,0.436332,0,0.034907,0.715585,-0.872665,0,0.436332,512.143,511.959,512.037,477.818,513.044,635.344
0,-0.087266,0.087266,0.001523,0.785398,0.087266,0.001523,0.785398,0,-0.034907,0.715585,-0.872665,0,0.436332,0,0.034907,0.715585,-0.872665,0,0.436332,512.14,511.957,512.036,477.85,513.118,635.345
0,-0.087266,0.087266,0.001523,0.785398,0.087266,0.001523,0.785398,0,-0.034907,0.715585,-0.872665,0,0.436332,0,0.034907,0.715585,-0.872665,0,0.436332,512.134,511.955,512.034,477.882,513.182,635.348
0,-0.087266,0.087266,0.001523,0.785398,0.087266,0.001523,0.785398,0,-0.034907,0.715585,-0.872665,0,0.436332,0,0.034907,0.715585,-0.872665,0,0.436332,512.127,511.955,512.032,477.909,513.241,635.35
0,-0.087266,0.087266,0.001523,0.785398,0.087266,0.001523,0.785398,0,-0.034907,0.715585,-0.872665,0,0.436332,0,0.034907,0.715585,-0.872665,0,0.436332,512.118,511.956,512.03,477.939,513.287,635.354
0,-0.087266,0.087266,0.001523,0.785398,0.087266,0.001523,0.785398,0,-0.034907,0.715585,-0.872665,0,0.436332,0,0.034907,0.715585,-0.872665,0,0.436332,512.108,511.957,512.027,477.965,513.325,635.357
0,-0.087266,0.087266,0.001523,0.785398,0.087266,0.001523,0.785398,0,-0.034907,0.715585,-0.872665,0,0.436332,0,0.034907,0.715585,-0.872665,0,0.436332,512.098,511.96,512.024,477.986,513.355,635.361
0,-0.087266,0.087266,0.001523,0.785398,0.087266,0.001523,0.785398,0,-0.034907,0.715585,-0.872665,0,0.436332,0,0.034907,0.715585,-0.872665,0,0.436332,512.086,511.963,512.021,478.005,513.377,635.365
0,-0.087266,0.087266,0.001523,0.785398,0.087266,0.001523,0.785398,0,-0.034907,0.715585,-0.872665,0,0.436332,0,0.034907,0.715585,-0.872665,0,0.436332,512.075,511.967,512.018,478.02,513.393,635.369
0,-0.087266,0.087266,0.001523,0.785398,0.087266,0.001523,0.785398,0,-0.034907,0.715585,-0.872665,0,0.436332,0,0.034907,0.715585,-0.872665,0,0.436332,512.063,511.971,512.014,478.03,513.402,635.372
0,-0.087266,0.087266,0.001523,0.785398,0.087266,0.001523,0.785398,0,-0.034907,0.715585,-0.872665,0,0.436332,0,0.034907,0.715585,-0.872665,0,0.436332,512.052,511.975,512.011,478.04,513.404,635.375
0,-0.087266,0.087266,0.001523,0.785398,0.087266,0.001523,0.785398,0,-0.034907,0.715585,-0.872665,0,0.436332,0,0.034907,0.715585,-0.872665,0,0.436332,512.041,511.98,512.008,478.043,513.402,635.377
0,-0.087266,0.087266,0.001523,0.785398,0.087266,0.001523,0.785398,0,-0.034907,0.715585,-0.872665,0,0.436332,0,0.034907,0.715585,-0.872665,0,0.436332,512.03,511.984,512.005,478.045,513.394,635.379
0,-0.087266,0.087266,0.001523,0.785398,0.087266,0.001523,0.785398,0,-0.034907,0.715585,-0.872665,0,0.436332,0,0.034907,0.715585,-0.872665,0,0.436332,512.02,511.989,512.002,478.044,513.381,635.381
0,-0.087266,0.087266,0.001523,0.785398,0.087266,0.001523,0.785398,0,-0.034907,0.715585,-0.872665,0,0.436332,0,0.034907,0.715585,-0.872665,0,0.436332,512.011,511.993,511.999,478.042,513.365,635.382
0,-0.087266,0.087266,0.001523,0.785398,0.087266,0.001523,0.785398,0,-0.034907,0.715585,-0.872665,0,0.436332,0,0.034907,0.715585,-0.872665,0,0.436332,512.003,511.997,511.997,478.034,513.347,635.382
0,-0.087266,0.087266,0.001523,0.785398,0.087266,0.001523,0.785398,0,-0.034907,0.715585,-0.872665,0,0.436332,0,0.034907,0.715585,-0.872665,0,0.436332,511.995,512,511.995,478.027,513.325,635.383
0,-0.087266,0.087266,0.001523,0.785398,0.087266,0.001523,0.785398,0,-0.034907,0.715585,-0.872665,0,0.436332,0,0.034907,0.715585,-0.872665,0,0.436332,511.989,512.004,511.993,478.019,513.302,635.384
0,-0.087266,0.087266,0.001523,0.785398,0.087266,0.001523,0.785398,0,-0.034907,0.715585,-0.872665,0,0.436332,0,0.034907,0.715585,-0.872665,0,0.436332,511.983,512.007,511.991,478.01,513.277,635.384
0,-0.087266,0.087266,0.001523,0.785398,0.087266,0.001523,0.785398,0,-0.034907,0.715585,-0.872665,0,0.436332,0,0.034907,0.715585,-0.872665,0,0.436332,511.978,512.009,511.99,477.997,513.254,635.383
0,-0.087266,0.087266,0.001523,0.785398,0.087266,0.001523,0.785398,0,-0.034907,0.715585,-0.872665,0,0.436332,0,0.034907,0.715585,-0.872665,0,0.436332,511.975,512.011,511.989,477.989,513.228,635.383
0,-0.087266,0.087266,0.001523,0.785398,0.087266,0.001523,0.785398,0,-0.034907,0.715585,-0.872665,0,0.436332,0,0.034907,0.715585,-0.872665,0,0.436332,511.972,512.013,511.988,477.974,513.207,635.381
0,-0.087266,0.087266,0.001523,0.785398,0.087266,0.001523,0.785398,0,-0.034907,0.715585,-0.872665,0,0.436332,0,0.034907,0.715585,-0.872665,0,0.436332,511.97,512.014,511.988,477.966,513.182,635.381
0,-0.087266,0.087266,0.001523,0.785398,0.087266,0.001523,0.785398,0,-0.034907,0.715585,-0.872665,0,0.436332,0,0.034907,0.715585,-0.872665,0,0.436332,511.969,512.015,511.987,477.956,513.159,635.381
0,-0.087266,0.087266,0.001523,0.785398,0.087266,0.001523,0.785398,0,-0.034907,0.715585,-0.872665,0,0.436332,0,0.034907,0.715585,-0.872665,0,0.436332,511.968,512.015,511.987,477.942,513.142,635.379
0,-0.087266,0.087266,0.001523,0.785398,0.087266,0.001523,0.785398,0,-0.034907,0.715585,-0.872665,0,0.436332,0,0.034907,0.715585,-0.872665,0,0.436332,511.969,512.015,511.987,477.935,513.123,635.379
0,-0.087266,0.087266,0.001523,0.785398,0.087266,0.001523,0.785398,0,-0.034907,0.715585,-0.872665,0,0.436332,0,0.034907,0.715585,-0.872665,0,0.436332,511.969,512.015,511.988,477.928,513.104,635.379
0,-0.087266,0.087266,0.001523,0.785398,0.087266,0.001523,0.785398,0,-0.034907,0.715585,-0.872665,0,0.436332,0,0.034907,0.715585,-0.872665,0,0.436332,511.971,512.015,511.988,477.919,513.09,635.378
0,-0.087266,0.087266,0.001523,0.785398,0.087266,0.001523,0.785398,0,-0.034907,0.715585,-0.872665,0,0.436332,0,0.034907,0.715585,-0.872665,0,0.436332,511.972,512.014,511.988,477.912,513.077,635.377
0,-0.087266,0.087266,0.001523,0.785398,0.087266,0.001523,0.785398,0,-0.034907,0.715585,-0.872665,0,0.436332,0,0.034907,0.715585,-0.872665,0,0.436332,511.974,512.013,511.989,477.907,513.065,635.377
0,-0.087266,0.087266,0.001523,0.785398,0.087266,0.001523,0.785398,0,-0.034907,0.715585,-0.872665,0,0.436332,0,0.034907,0.715585,-0.872665,0,0.436332,511.977,512.012,511.99,477.902,513.057,635.377
0,-0.087266,0.087266,0.001523,0.785398,0.087266,0.001523,0.785398,0,-0.034907,0.715585,-0.872665,0,0.436332,0,0.034907,0.715585,-0.872665,0,0.436332,511.979,512.011,511.99,477.9,513.048,635.377
0,-0.087266,0.087266,0.001523,0.785398,0.087266,0.001523,0.785398,0,-0.034907,0.715585,-0.872665,0,0.436332,0,0.034907,0.715585,-0.872665,0,0.436332,511.982,512.01,511.991,477.894,513.045,635.375
0,-0.087266,0.087266,0.001523,0.785398,0.087266,0.001523,0.785398,0,-0.034907,0.715585,-0.872665,0,0.436332,0,0.034907,0.715585,-0.872665,0,0.436332,511.985,512.008,511.992,477.893,513.04,635.375
0,-0.087266,0.087266,0.001523,0.785398,0.087266,0.001523,0.785398,0,-0.034907,0.715585,-0.872665,0,0.436332,0,0.034907,0.715585,-0.872665,0,0.436332,511.987,512.007,511.993,477.893,513.038,635.375
0,-0.087266,0.087266,0.001523,0.785398,0.087266,0.001523,0.785398,0,-0.034907,0.715585,-0.872665,0,0.436332,0,0.034907,0.715585,-0.872665,0,0.436332,511.99,512.006,511.994,477.893,513.037,635.375
0,-0.087266,0.087266,0.001523,0.785398,0.087266,0.001523,0.785398,0,-0.034907,0.715585,-0.872665,0,0.436332,0,0.034907,0.715585,-0.872665,0,0.436332,511.993,512.005,511.994,477.893,513.038,635.375
0,-0.087266,0.087266,0.001523,0.785398,0.087266,0.001523,0.785398,0,-0.034907,0.715585,-0.872665,0,0.436332,0,0.034907,0.715585,-0.872665,0,0.436332,511.995,512.003,511.995,477.895,513.04,635.375
0,-0.087266,0.087266,0.001523,0.785398,0.087266,0.001523,0.785398,0,-0.034907,0.715585,-0.872665,0,0.436332,0,0.034907,0.715585,-0.872665,0,0.436332,511.998,512.002,511.996,477.895,513.044,635.375
0,-0.087266,0.087266,0.001523,0.785398,0.087266,0.001523,0.785398,0,-0.034907,0.715585,-0.872665,0,0.436332,0,0.034907,0.715585,-0.872665,0,0.436332,512,512.001,511.996,477.895,513.049,635.374
0,-0.087266,0.087266,0.001523,0.785398,0.087266,0.001523,0.785398,0,-0.034907,0.715585,-0.872665,0,0.436332,0,0.034907,0.715585,-0.872665,0,0.436332,512.002,512,511.997,477.9,513.053,635.375
0,-0.087266,0.087266,0.001523,0.785398,0.087266,0.001523,0.785398,0,-0.034907,0.715585,-0.872665,0,0.436332,0,0.034907,0.715585,-0.872665,0,0.436332,512.004,512,511.998,477.901,513.059,635.375
0,-0.087266,0.087266,0.001523,0.785398,0.087266,0.001523,0.785398,0,-0.034907,0.715585,-0.872665,0,0.436332,0,0.034907,0.715585,-0.872665,0,0.436332,512.005,511.999,511.998,477.905,513.064,635.375
0,-0.087266,0.087266,0.001523,0.785398,0.087266,0.001523,0.785398,0,-0.034907,0.715585,-0.872665,0,0.436332,0,0.034907,0.715585,-0.872665,0,0.436332,512.007,511.998,511.998,477.908,513.07,635.375
0,-0.087266,0.087266,0.001523,0.785398,0.087266,0.001523,0.785398,0,-0.034907,0.715585,-0.872665,0,0.436332,0,0.034907,0.715585,-0.872665,0,0.436332,512.008,511.998,511.999,477.907,513.078,635.375
0,-0.087266,0.087266,0.001523,0.785398,0.087266,0.001523,0.785398,0,-0.034907,0.715585,-0.872665,0,0.436332,0,0.034907,0.715585,-0.872665,0,0.436332,512.008,511.997,511.999,477.913,513.083,635.375
0,-0.087266,0.087266,0.001523,0.785398,0.087266,0.001523,0.785398,0,-0.034907,0.715585,-0.872665,0,0.436332,0,0.034907,0.715585,-0.872665,0,0.436332,512.009,511.997,511.999,477.915,513.089,635.375
0,-0.087266,0.087266,0.001523,0.785398,0.087266,0.001523,0.785398,0,-0.034907,0.715585,-0.872665,0,0.436332,0,0.034907,0.715585,-0.872665,0,0.436332,512.009,511.997,511.999,477.918,513.094,635.375
0,-0.087266,0.087266,0.001523,0.785398,0.087266,0.001523,0.785398,0,-0.034907,0.715585,-0.872665,0,0.436332,0,0.034907,0.715585,-0.872665,0,0.436332,512.01,511.997,511.999,477.919,513.1,635.375
0,-0.087266,0.087266,0.001523,0.785398,0.087266,0.001523,0.785398,0,-0.034907,0.715585,-0.872665,0,0.436332,0,0.034907,0.715585,-0.872665,0,0.436332,512.01,511.997,511.999,477.921,513.106,635.375
0,-0.087266,0.087266,0.001523,0.785398,0.087266,0.001523,0.785398,0,-0.034907,0.715585,-0.872665,0,0.436332,0,0.034907,0.715585,-0.872665,0,0.436332,512.002,512,511.997,477.994,513.288,635.374
0,-0.087266,0.087266,0.001523,0.785398,0.087266,0.001523,0.785398,0,-0.034907,0.715585,-0.872665,0,0.436332,0,0.034907,0.715585,-0.872665,0,0.436332,512.002,512,511.997,477.924,513.105,635.376
0,-0.087266,0.087266,0.001523,0.785398,0.087266,0.001523,0.785398,0,-0.034907,0.715585,-0.872665,0,0.436332,0,0.034907,0.715585,-0.872665,0,0.436332,512.002,512,511.997,477.922,513.106,635.375
0,-0.087266,0.087266,0.001523,0.785398,0.087266,0.001523,0.785398,0,-0.034907,0.715585,-0.872665,0,0.436332,0,0.034907,0.715585,-0.872665,0,0.436332,512.002,512,511.997,477.922,513.106,635.375
0,-0.087266,0.087266,0.001523,0.785398,0.087266,0.001523,0.785398,0,-0.034907,0.715585,-0.872665,0,0.436332,0,0.034907,0.715585,-0.872665,0,0.436332,512.002,512,511.997,477.923,513.105,635.375
0,-0.087266,0.087266,0.001523,0.785398,0.087266,0.001523,0.785398,0,-0.034907,0.715585,-0.872665,0,0.436332,0,0.034907,0.715585,-0.872665,0,0.436332,512.002,512,511.997,477.923,513.107,635.376
0,-0.087266,0.087266,0.001523,0.785398,0.087266,0.001523,0.785398,0,-0.034907,0.715585,-0.872665,0,0.436332,0,0.034907,0.715585,-0.872665,0,0.436332,512.002,512,511.997,477.924,513.106,635.376
0,-0.087266,0.087266,0.001523,0.785398,0.087266,0.001523,0.785398,0,-0.034907,0.715585,-0.872665,0,0.436332,0,0.034907,0.715585,-0.872665,0,0.436332,512.002,512,511.997,477.919,513.107,635.375
0,-0.087266,0.087266,0.001523,0.785398,0.087266,0.001523,0.785398,0,-0.034907,0.715585,-0.872665,0,0.436332,0,0.034907,0.715585,-0.872665,0,0.436332,512.002,512,511.997,477.923,513.106,635.375
0,-0.087266,0.087266,0.001523,0.785398,0.087266,0.001523,0.785398,0,-0.034907,0.715585,-0.872665,0,0.436332,0,0.034907,0.715585,-0.872665,0,0.436332,512.002,512,511.997,477.922,513.107,635.375
0,-0.087266,0.087266,0.001523,0.785398,0.087266,0.001523,0.785398,0,-0.034907,0.715585,-0.872665,0,0.436332,0,0.034907,0.715585,-0.872665,0,0.436332,512.002,512,511.997,477.922,513.106,635.375
0,-0.087266,0.087266,0.001523,0.785398,0.087266,0.001523,0.785398,0,-0.034907,0.715585,-0.872665,0,0.436332,0,0.034907,0.715585,-0.872665,0,0.436332,512.002,512,511.997,477.922,513.107,635.376
0,-0.087266,0.087266,0.001523,0.785398,0.087266,0.001523,0.785398,0,-0.034907,0.715585,-0.872665,0,0.436332,0,0.034907,0.715585,-0.872665,0,0.436332,512.002,512,511.997,477.921,513.108,635.375
0,-0.087266,0.087266,0.001523,0.785398,0.087266,0.001523,0.785398,0,-0.034907,0.715585,-0.872665,0,0.436332,0,0.034907,0.715585,-0.872665,0,0.436332,512.002,512,511.997,477.925,513.106,635.376
0,-0.087266,0.087266,0.001523,0.785398,0.087266,0.001523,0.785398,0,-0.034907,0.715585,-0.872665,0,0.436332,0,0.034907,0.715585,-0.872665,0,0.436332,512.002,512,511.997,477.922,513.107,635.375
0,-0.087266,0.087266,0.001523,0.785398,0.087266,0.001523,0.785398,0,-0.034907,0.715585,-0.872665,0,0.436332,0,0.034907,0.715585,-0.872665,0,0.436332,512.002,512,511.997,477.92,513.108,635.375
0,-0.087266,0.087266,0.001523,0.785398,0.087266,0.001523,0.785398,0,-0.034907,0.715585,-0.872665,0,0.436332,0,0.034907,0.715585,-0.872665,0,0.436332,512.002,512,511.997,477.923,513.107,635.375
0,-0.087266,0.087266,0.001523,0.785398,0.087266,0.001523,0.785398,0,-0.034907,0.715585,-0.872665,0,0.436332,0,0.034907,0.715585,-0.872665,0,0.436332,512.002,512,511.997,477.921,513.108,635.375
0,-0.087266,0.087266,0.001523,0.785398,0.087266,0.001523,0.785398,0,-0.034907,0.715585,-0.872665,0,0.436332,0,0.034907,0.715585,-0.872665,0,0.436332,512.002,512,511.997,477.922,513.108,635.375
0,-0.087266,0.087266,0.001523,0.785398,0.087266,0.001523,0.785398,0,-0.034907,0.715585,-0.872665,0,0.436332,0,0.034907,0.715585,-0.872665,0,0.436332,512.002,512,511.997,477.923,513.107,635.375
0,-0.087266,0.087266,0.001523,0.785398,0.087266,0.001523,0.785398,0,-0.034907,0.715585,-0.872665,0,0.436332,0,0.034907,0.715585,-0.872665,0,0.436332,512.002,512,511.997,477.921,513.108,635.375
0,-0.087266,0.087266,0.001523,0.785398,0.087266,0.001523,0.785398,0,-0.034907,0.715585,-0.872665,0,0.436332,0,0.034907,0.715585,-0.872665,0,0.436332,512.002,512,511.997,477.923,513.107,635.375
0,-0.087266,0.087266,0.001523,0.785398,0.087266,0.001523,0.785398,0,-0.034907,0.715585,-0.872665,0,0.436332,0,0.034907,0.715585,-0.872665,0,0.436332,512.002,512,511.997,477.921,513.108,635.375
0,-0.087266,0.087266,0.001523,0.785398,0.087266,0.001523,0.785398,0,-0.034907,0.715585,-0.872665,0,0.436332,0,0.034907,0.715585,-0.872665,0,0.436332,512.002,512,511.997,477.923,513.108,635.376
0,-0.087266,0.087266,0.001523,0.785398,0.087266,0.001523,0.785398,0,-0.034907,0.715585,-0.872665,0,0.436332,0,0.034907,0.715585,-0.872665,0,0.436332,512.002,512,511.997,477.92,513.109,635.375
0,-0.087266,0.087266,0.001523,0.785398,0.087266,0.001523,0.785398,0,-0.034907,0.715585,-0.872665,0,0.436332,0,0.034907,0.715585,-0.872665,0,0.436332,512.002,512,511.997,477.922,513.108,635.375
0,-0.087266,0.087266,0.001523,0.785398,0.087266,0.001523,0.785398,0,-0.034907,0.715585,-0.872665,0,0.436332,0,0.034907,0.715585,-0.872665,0,0.436332,512.002,512,511.997,477.922,513.108,635.375
0,-0.087266,0.087266,0.001523,0.785398,0.087266,0.001523,0.785398,0,-0.034907,0.715585,-0.872665,0,0.436332,0,0.034907,0.715585,-0.872665,0,0.436332,512.002,512,511.997,477.92,513.109,635.375
0,-0.087266,0.087266,0.001523,0.785398,0.087266,0.001523,0.785398,0,-0.034907,0.715585,-0.872665,0,0.436332,0,0.034907,0.715585,-0.872665,0,0.436332,512.002,512,511.997,477.924,513.107,635.375
0,-0.087266,0.087266,0.001523,0.785398,0.087266,0.001523,0.785398,0,-0.034907,0.715585,-0.872665,0,0.436332,0,0.034907,0.715585,-0.872665,0,0.436332,512.002,512,511.997,477.922,513.109,635.375
0,-0.087266,0.087266,0.001523,0.785398,0.087266,0.001523,0.785398,0,-0.034907,0.715585,-0.872665,0,0.436332,0,0.034907,0.715585,-0.872665,0,0.436332,512.002,512,511.997,477.92,513.109,635.375
0,-0.087266,0.087266,0.001523,0.785398,0.087266,0.001523,0.785398,0,-0.034907,0.715585,-0.872665,0,0.436332,0,0.034907,0.715585,-0.872665,0,0.436332,512.002,512,511.997,477.921,513.109,635.375
0,-0.087266,0.087266,0.001523,0.785398,0.087266,0.001523,0.785398,0,-0.034907,0.715585,-0.872665,0,0.436332,0,0.034907,0.715585,-0.872665,0,0.436332,512.002,512,511.997,477.921,513.109,635.375
0,-0.087266,0.087266,0.001523,0.785398,0.087266,0.001523,0.785398,0,-0.034907,0.715585,-0.872665,0,0.436332,0,0.034907,0.715585,-0.872665,0,0.436332,512.002,512,511.997,477.923,513.108,635.375
0,-0.087266,0.087266,0.001523,0.785398,0.087266,0.001523,0.785398,0,-0.034907,0.715585,-0.872665,0,0.436332,0,0.034907,0.715585,-0.872665,0,0.436332,512.002,512,511.997,477.92,513.109,635.375
0,-0.087266,0.087266,0.001523,0.785398,0.087266,0.001523,0.785398,0,-0.034907,0.715585,-0.872665,0,0.436332,0,0.034907,0.715585,-0.872665,0,0.436332,512.002,512,511.997,477.922,513.109,635.375
0,-0.087266,0.087266,0.001523,0.785398,0.087266,0.001523,0.785398,0,-0.034907,0.715585,-0.872665,0,0.436332,0,0.034907,0.715585,-0.872665,0,0.436332,512.002,512,511.997,477.922,513.109,635.375
0,-0.087266,0.087266,0.001523,0.785398,0.087266,0.001523,0.785398,0,-0.034907,0.715585,-0.872665,0,0.436332,0,0.034907,0.715585,-0.872665,0,0.436332,512.002,512,511.997,477.922,513.11,635.375
0,-0.087266,0.087266,0.001523,0.785398,0.087266,0.001523,0.785398,0,-0.034907,0.715585,-0.872665,0,0.436332,0,0.034907,0.715585,-0.872665,0,0.436332,512.002,512,511.997,477.92,513.109,635.375
0,-0.087266,0.087266,0.001523,0.785398,0.087266,0.001523,0.785398,0,-0.034907,0.715585,-0.872665,0,0.436332,0,0.034907,0.715585,-0.872665,0,0.436332,512.002,512,511.997,477.919,513.11,635.375
0,-0.087266,0.087266,0.001523,0.785398,0.087266,0.001523,0.785398,0,-0.034907,0.715585,-0.872665,0,0.436332,0,0.034907,0.715585,-0.872665,0,0.436332,512.002,512,511.997,477.922,513.108,635.375
0,-0.087266,0.087266,0.001523,0.785398,0.087266,0.001523,0.785398,0,-0.034907,0.715585,-0.872665,0,0.436332,0,0.034907,0.715585,-0.872665,0,0.436332,512.002,512,511.997,477.923,513.109,635.375
0,-0.087266,0.087266,0.001523,0.785398,0.087266,0.001523,0.785398,0,-0.034907,0.715585,-0.872665,0,0.436332,0,0.034907,0.715585,-0.872665,0,0.436332,512.002,512,511.997,477.918,513.111,635.375
0,-0.087266,0.087266,0.001523,0.785398,0.087266,0.001523,0.785398,0,-0.034907,0.715585,-0.872665,0,0.436332,0,0.034907,0.715585,-0.872665,0,0.436332,512.002,512,511.997,477.922,513.11,635.375
0,-0.087266,0.087266,0.001523,0.785398,0.087266,0.001523,0.785398,0,-0.034907,0.715585,-0.872665,0,0.436332,0,0.034907,0.715585,-0.872665,0,0.436332,512.002,512,511.997,477.922,513.109,635.375
0,-0.087266,0.087266,0.001523,0.785398,0.087266,0.001523,0.785398,0,-0.034907,0.715585,-0.872665,0,0.436332,0,0.034907,0.715585,-0.872665,0,0.436332,512.002,512,511.997,477.92,513.11,635.375
0,-0.087266,0.087266,0.001523,0.785398,0.087266,0.001523,0.785398,0,-0.034907,0.715585,-0.872665,0,0.436332,0,0.034907,0.715585,-0.872665,0,0.436332,512.002,512,511.997,477.92,513.111,635.375
0,-0.087266,0.087266,0.001523,0.785398,0.087266,0.001523,0.785398,0,-0.034907,0.715585,-0.872665,0,0.436332,0,0.034907,0.715585,-0.872665,0,0.436332,512.002,512,511.997,477.921,513.11,635.375
0,-0.087266,0.087266,0.001523,0.785398,0.087266,0.001523,0.785398,0,-0.034907,0.715585,-0.872665,0,0.436332,0,0.034907,0.715585,-0.872665,0,0.436332,512.002,512,511.997,477.92,513.11,635.375
0,-0.087266,0.087266,0.001523,0.785398,0.087266,0.001523,0.785398,0,-0.034907,0.715585,-0.872665,0,0.436332,0,0.034907,0.715585,-0.872665,0,0.436332,512.002,512,511.997,477.921,513.11,635.375
0,-0.087266,0.087266,0.001523,0.785398,0.087266,0.001523,0.785398,0,-0.034907,0.715585,-0.872665,0,0.436332,0,0.034907,0.715585,-0.872665,0,0.436332,512.002,512,511.997,477.921,513.11,635.375
0,-0.087266,0.087266,0.001523,0.785398,0.087266,0.001523,0.785398,0,-0.034907,0.715585,-0.872665,0,0.436332,0,0.034907,0.715585,-0.872665,0,0.436332,512.002,512,511.997,477.922,513.109,635.375
0,-0.087266,0.087266,0.001523,0.785398,0.087266,0.001523,0.785398,0,-0.034907,0.715585,-0.872665,0,0.436332,0,0.034907,0.715585,-0.872665,0,0.436332,512.002,512,511.997,477.919,513.112,635.375
0,-0.087266,0.087266,0.001523,0.785398,0.087266,0.001523,0.785398,0,-0.034907,0.715585,-0.872665,0,0.436332,0,0.034907,0.715585,-0.872665,0,0.436332,512.002,512,511.997,477.921,513.11,635.375
0,-0.087266,0.087266,0.001523,0.785398,0.087266,0.001523,0.785398,0,-0.034907,0.715585,-0.872665,0,0.436332,0,0.034907,0.715585,-0.872665,0,0.436332,512.002,512,511.997,477.919,513.111,635.375
0,-0.087266,0.087266,0.001523,0.785398,0.087266,0.001523,0.785398,0,-0.034907,0.715585,-0.872665,0,0.436332,0,0.034907,0.715585,-0.872665,0,0.436332,512.002,512,511.997,477.922,513.11,635.375
0,-0.087266,0.087266,0.001523,0.785398,0.087266,0.001523,0.785398,0,-0.034907,0.715585,-0.872665,0,0.436332,0,0.034907,0.715585,-0.872665,0,0.436332,512.002,512,511.997,477.919,513.112,635.375
0,-0.087266,0.087266,0.001523,0.785398,0.087266,0.001523,0.785398,0,-0.034907,0.715585,-0.872665,0,0.436332,0,0.034907,0.715585,-0.872665,0,0.436332,512.002,512,511.997,477.921,513.11,635.375
0,-0.087266,0.087266,0.001523,0.785398,0.087266,0.001523,0.785398,0,-0.034907,0.715585,-0.872665,0,0.436332,0,0.034907,0.715585,-0.872665,0,0.436332,512.002,512,511.997,477.92,513.111,635.375
0,-0.087266,0.087266,0.001523,0.785398,0.087266,0.001523,0.785398,0,-0.034907,0.715585,-0.872665,0,0.436332,0,0.034907,0.715585,-0.872665,0,0.436332,512.002,512.001,511.997,477.919,513.112,635.375
0,-0.087266,0.087266,0.001523,0.785398,0.087266,0.001523,0.785398,0,-0.034907,0.715585,-0.872665,0,0.436332,0,0.034907,0.715585,-0.872665,0,0.436332,512.002,512.001,511.997,477.92,513.111,635.375
0,-0.087266,0.087266,0.001523,0.785398,0.087266,0.001523,0.785398,0,-0.034907,0.715585,-0.872665,0,0.436332,0,0.034907,0.715585,-0.872665,0,0.436332,512.002,512.001,511.997,477.921,513.111,635.375
0,-0.087266,0.087266,0.001523,0.785398,0.087266,0.001523,0.785398,0,-0.034907,0.715585,-0.872665,0,0.436332,0,0.034907,0.715585,-0.872665,0,0.436332,512.002,512,511.997,477.92,513.111,635.375
0,-0.087266,0.087266,0.001523,0.785398,0.087266,0.001523,0.785398,0,-0.034907,0.715585,-0.872665,0,0.436332,0,0.034907,0.715585,-0.872665,0,0.436332,512.002,512.001,511.997,477.92,513.111,635.374
0,-0.087266,0.087266,0.001523,0.785398,0.087266,0.001523,0.785398,0,-0.034907,0.715585,-0.872665,0,0.436332,0,0.034907,0.715585,-0.872665,0,0.436332,512.002,512,511.997,477.92,513.112,635.375
