neck_yaw, neck_pitch, left_shoulder_pitch [shoulder], left_shoulder_roll, left_elbow, right_shoulder_pitch [shoulder], right_shoulder_roll, right_elbow, left_hip_yaw [hip], left_hip_roll, left_hip_pitch, left_knee, left_ankle_roll, left_ankle_pitch, right_hip_yaw [hip], right_hip_roll, right_hip_pitch, right_knee, right_ankle_roll, right_ankle_pitch, gyro_x, gyro_y, gyro_z, acc_x, acc_y,acc_z
0,-0.087266,0.087266,0.001523,0.785398,0.087266,0.001523,0.785398,0,-0.034907,0.715585,-0.872665,0,0.436332,0,0.034907,0.715585,-0.872665,0,0.436332,512.008,512.07,512.219,520.453,512.871,513.948
0,-0.087266,0.087266,0.001523,0.785398,0.087266,0.001523,0.785398,0,-0.034907,0.715585,-0.872665,0,0.436332,0,0.034907,0.715585,-0.872665,0,0.436332,511.24,514.847,511.718,455.698,527.92,983.179
0,-0.087266,0.087266,0.001523,0.785398,0.087266,0.001523,0.785398,0,-0.034907,0.715585,-0.872665,0,0.436332,0,0.034907,0.715585,-0.872665,0,0.436332,510.953,515.183,511.933,507.65,509.889,489.912
0,-0.087266,0.087266,0.001523,0.785398,0.087266,0.001523,0.785398,0,-0.034907,0.715585,-0.872665,0,0.436332,0,0.034907,0.715585,-0.872665,0,0.436332,511.121,518.671,512.395,490.136,506.98,534.229
0,-0.087266,0.087266,0.001523,0.785398,0.087266,0.001523,0.785398,0,-0.034907,0.715585,-0.872665,0,0.436332,0,0.034907,0.715585,-0.872665,0,0.436332,510.665,521.076,512.874,494.577,494.925,603.757
0,-0.087266,0.087266,0.001523,0.785398,0.087266,0.001523,0.785398,0,-0.034907,0.715585,-0.872665,0,0.436332,0,0.034907,0.715585,-0.872665,0,0.436332,511.524,524.535,512.715,510.664,500.753,634.222
0,-0.087266,0.087266,0.001523,0.785398,0.087266,0.001523,0.785398,0,-0.034907,0.715585,-0.872665,0,0.436332,0,0.034907,0.715585,-0.872665,0,0.436332,511.568,526.144,512.67,526.677,492.699,647.571
0,-0.087266,0.087266,0.001523,0.785398,0.087266,0.001523,0.785398,0,-0.034907,0.715585,-0.872665,0,0.436332,0,0.034907,0.715585,-0.872665,0,0.436332,512.36,525.989,512.471,523.48,499.391,656.407
0,-0.087266,0.087266,0.001523,0.785398,0.087266,0.001523,0.785398,0,-0.034907,0.715585,-0.872665,0,0.436332,0,0.034907,0.715585,-0.872665,0,0.436332,513.244,525.864,512.253,521.555,506.364,659.768
0,-0.087266,0.087266,0.001523,0.785398,0.087266,0.001523,0.785398,0,-0.034907,0.715585,-0.872665,0,0.436332,0,0.034907,0.715585,-0.872665,0,0.436332,513.929,525.808,511.917,519.526,509.266,660.578
0,-0.087266,0.087266,0.001523,0.785398,0.087266,0.001523,0.785398,0,-0.034907,0.715585,-0.872665,0,0.436332,0,0.034907,0.715585,-0.872665,0,0.436332,514.404,525.721,511.95,514.013,511.087,658.219
0,-0.087266,0.087266,0.001523,0.785398,0.087266,0.001523,0.785398,0,-0.034907,0.715585,-0.872665,0,0.436332,0,0.034907,0.715585,-0.872665,0,0.436332,514.712,525.66,512.049,511.81,511.425,656.572
0,-0.087266,0.087266,0.001523,0.785398,0.087266,0.001523,0.785398,0,-0.034907,0.715585,-0.872665,0,0.436332,0,0.034907,0.715585,-0.872665,0,0.436332,514.991,525.747,512.109,509.011,527.795,654.023
0,-0.087266,0.087266,0.001523,0.785398,0.087266,0.001523,0.785398,0,-0.034907,0.715585,-0.872665,0,0.436332,0,0.034907,0.715585,-0.872665,0,0.436332,515.027,525.801,512.111,503.941,516.602,652.194
0,-0.087266,0.087266,0.001523,0.785398,0.087266,0.001523,0.785398,0,-0.034907,0.715585,-0.872665,0,0.436332,0,0.034907,0.715585,-0.872665,0,0.436332,514.948,525.812,512.115,500.606,514.809,650.2
0,-0.087266,0.087266,0.001523,0.785398,0.087266,0.001523,0.785398,0,-0.034907,0.715585,-0.872665,0,0.436332,0,0.034907,0.715585,-0.872665,0,0.436332,514.863,525.867,512.091,500.205,517.891,648.912
0,-0.087266,0.087266,0.001523,0.785398,0.087266,0.001523,0.785398,0,-0.034907,0.715585,-0.872665,0,0.436332,0,0.034907,0.715585,-0.872665,0,0.436332,514.75,525.967,512.068,499.343,518.238,647.25
0,-0.087266,0.087266,0.001523,0.785398,0.087266,0.001523,0.785398,0,-0.034907,0.715585,-0.872665,0,0.436332,0,0.034907,0.715585,-0.872665,0,0.436332,514.62,526.064,512.102,498.682,518.355,646.024
0,-0.087266,0.087266,0.001523,0.785398,0.087266,0.001523,0.785398,0,-0.034907,0.715585,-0.872665,0,0.436332,0,0.034907,0.715585,-0.872665,0,0.436332,514.387,526.176,512.145,496.392,517.558,644.382
0,-0.087266,0.087266,0.001523,0.785398,0.087266,0.001523,0.785398,0,-0.034907,0.715585,-0.872665,0,0.436332,0,0.034907,0.715585,-0.872665,0,0.436332,513.723,525.122,512.417,501.998,513.184,644.447
0,-0.087266,0.087266,0.001523,0.785398,0.087266,0.001523,0.785398,0,-0.034907,0.715585,-0.872665,0,0.436332,0,0.034907,0.715585,-0.872665,0,0.436332,512.822,521.695,512.067,511.81,518.205,661.665
0,-0.087266,0.087266,0.001523,0.785398,0.087266,0.001523,0.785398,0,-0.034907,0.715585,-0.872665,0,0.436332,0,0.034907,0.715585,-0.872665,0,0.436332,512.475,520.65,512.108,493.925,518.059,641.189
0,-0.087266,0.087266,0.001523,0.785398,0.087266,0.001523,0.785398,0,-0.034907,0.715585,-0.872665,0,0.436332,0,0.034907,0.715585,-0.872665,0,0.436332,511.285,519.748,511.875,466.151,517.385,640.754
0,-0.087266,0.087266,0.001523,0.785398,0.087266,0.001523,0.785398,0,-0.034907,0.715585,-0.872665,0,0.436332,0,0.034907,0.715585,-0.872665,0,0.436332,510.064,518.864,511.627,468.446,515.98,635.592
0,-0.087266,0.087266,0.001523,0.785398,0.087266,0.001523,0.785398,0,-0.034907,0.715585,-0.872665,0,0.436332,0,0.034907,0.715585,-0.872665,0,0.436332,509.678,518.175,512.017,445.484,517.012,632.337
0,-0.087266,0.087266,0.001523,0.785398,0.087266,0.001523,0.785398,0,-0.034907,0.715585,-0.872665,0,0.436332,0,0.034907,0.715585,-0.872665,0,0.436332,509.886,517.053,512.172,465.75,519.796,632.257
0,-0.087266,0.087266,0.001523,0.785398,0.087266,0.001523,0.785398,0,-0.034907,0.715585,-0.872665,0,0.436332,0,0.034907,0.715585,-0.872665,0,0.436332,510.067,516.029,512.268,468.849,518.933,634.145
0,-0.087266,0.087266,0.001523,0.785398,0.087266,0.001523,0.785398,0,-0.034907,0.715585,-0.872665,0,0.436332,0,0.034907,0.715585,-0.872665,0,0.436332,510.207,515.106,512.367,468.812,518.051,634.087
0,-0.087266,0.087266,0.001523,0.785398,0.087266,0.001523,0.785398,0,-0.034907,0.715585,-0.872665,0,0.436332,0,0.034907,0.715585,-0.872665,0,0.436332,510.324,514.261,512.48,469.211,517.284,634.069
0,-0.087266,0.087266,0.001523,0.785398,0.087266,0.001523,0.785398,0,-0.034907,0.715585,-0.872665,0,0.436332,0,0.034907,0.715585,-0.872665,0,0.436332,510.426,513.491,512.611,469.941,516.499,634.116
0,-0.087266,0.087266,0.001523,0.785398,0.087266,0.001523,0.785398,0,-0.034907,0.715585,-0.872665,0,0.436332,0,0.034907,0.715585,-0.872665,0,0.436332,510.575,512.771,512.805,471.663,514.499,634.076
0,-0.087266,0.087266,0.001523,0.785398,0.087266,0.001523,0.785398,0,-0.034907,0.715585,-0.872665,0,0.436332,0,0.034907,0.715585,-0.872665,0,0.436332,510.807,512.274,513.501,471.527,515.877,634.79
0,-0.087266,0.087266,0.001523,0.785398,0.087266,0.001523,0.785398,0,-0.034907,0.715585,-0.872665,0,0.436332,0,0.034907,0.715585,-0.872665,0,0.436332,510.8,511.953,513.662,473.533,512.682,634.911
0,-0.087266,0.087266,0.001523,0.785398,0.087266,0.001523,0.785398,0,-0.034907,0.715585,-0.872665,0,0.436332,0,0.034907,0.715585,-0.872665,0,0.436332,510.932,511.713,513.75,475.284,512.686,635.524
0,-0.087266,0.087266,0.001523,0.785398,0.087266,0.001523,0.785398,0,-0.034907,0.715585,-0.872665,0,0.436332,0,0.034907,0.715585,-0.872665,0,0.436332,511.188,511.342,512.005,479.346,508.305,636.051
0,-0.087266,0.087266,0.001523,0.785398,0.087266,0.001523,0.785398,0,-0.034907,0.715585,-0.872665,0,0.436332,0,0.034907,0.715585,-0.872665,0,0.436332,511.561,511.219,511.948,478.272,512.331,636.684
0,-0.087266,0.087266,0.001523,0.785398,0.087266,0.001523,0.785398,0,-0.034907,0.715585,-0.872665,0,0.436332,0,0.034907,0.715585,-0.872665,0,0.436332,511.829,511.148,511.944,479.563,511.864,636.682
0,-0.087266,0.087266,0.001523,0.785398,0.087266,0.001523,0.785398,0,-0.034907,0.715585,-0.872665,0,0.436332,0,0.034907,0.715585,-0.872665,0,0.436332,511.882,511.145,511.964,480.996,511.577,636.883
0,-0.087266,0.087266,0.001523,0.785398,0.087266,0.001523,0.785398,0,-0.034907,0.715585,-0.872665,0,0.436332,0,0.034907,0.715585,-0.872665,0,0.436332,511.906,511.2,511.971,482.277,512.07,637.141
0,-0.087266,0.087266,0.001523,0.785398,0.087266,0.001523,0.785398,0,-0.034907,0.715585,-0.872665,0,0.436332,0,0.034907,0.715585,-0.872665,0,0.436332,511.93,511.271,511.979,482.808,512.169,636.956
0,-0.087266,0.087266,0.001523,0.785398,0.087266,0.001523,0.785398,0,-0.034907,0.715585,-0.872665,0,0.436332,0,0.034907,0.715585,-0.872665,0,0.436332,511.952,511.351,511.987,483.071,512.225,636.916
0,-0.087266,0.087266,0.001523,0.785398,0.087266,0.001523,0.785398,0,-0.034907,0.715585,-0.872665,0,0.436332,0,0.034907,0.715585,-0.872665,0,0.436332,511.974,511.437,511.987,483.244,512.242,636.906
0,-0.087266,0.087266,0.001523,0.785398,0.087266,0.001523,0.785398,0,-0.034907,0.715585,-0.872665,0,0.436332,0,0.034907,0.715585,-0.872665,0,0.436332,511.995,511.526,511.99,483.324,512.319,636.885
0,-0.087266,0.087266,0.001523,0.785398,0.087266,0.001523,0.785398,0,-0.034907,0.715585,-0.872665,0,0.436332,0,0.034907,0.715585,-0.872665,0,0.436332,512.009,511.617,512.014,483.327,512.419,636.852
0,-0.087266,0.087266,0.001523,0.785398,0.087266,0.001523,0.785398,0,-0.034907,0.715585,-0.872665,0,0.436332,0,0.034907,0.715585,-0.872665,0,0.436332,512.028,511.706,512.014,483.338,512.409,636.835
0,-0.087266,0.087266,0.001523,0.785398,0.087266,0.001523,0.785398,0,-0.034907,0.715585,-0.872665,0,0.436332,0,0.034907,0.715585,-0.872665,0,0.436332,512.048,511.791,512.001,483.276,512.42,636.806
0,-0.087266,0.087266,0.001523,0.785398,0.087266,0.001523,0.785398,0,-0.034907,0.715585,-0.872665,0,0.436332,0,0.034907,0.715585,-0.872665,0,0.436332,512.059,511.872,512.021,483.12,512.556,636.748
0,-0.087266,0.087266,0.001523,0.785398,0.087266,0.001523,0.785398,0,-0.034907,0.715585,-0.872665,0,0.436332,0,0.034907,0.715585,-0.872665,0,0.436332,512.073,511.94,512.019,482.934,512.569,636.712
0,-0.087266,0.087266,0.001523,0.785398,0.087266,0.001523,0.785398,0,-0.034907,0.715585,-0.872665,0,0.436332,0,0.034907,0.715585,-0.872665,0,0.436332,512.08,511.995,512.031,482.623,512.694,636.644
0,-0.087266,0.087266,0.001523,0.785398,0.087266,0.001523,0.785398,0,-0.034907,0.715585,-0.872665,0,0.436332,0,0.034907,0.715585,-0.872665,0,0.436332,512.088,512.037,512.024,482.362,512.739,636.575
0,-0.087266,0.087266,0.001523,0.785398,0.087266,0.001523,0.785398,0,-0.034907,0.715585,-0.872665,0,0.436332,0,0.034907,0.715585,-0.872665,0,0.436332,512.09,512.068,512.026,482.094,512.855,636.487
0,-0.087266,0.087266,0.001523,0.785398,0.087266,0.001523,0.785398,0,-0.034907,0.715585,-0.872665,0,0.436332,0,0.034907,0.715585,-0.872665,0,0.436332,512.093,512.088,512.014,481.877,512.9,636.425
0,-0.087266,0.087266,0.001523,0.785398,0.087266,0.001523,0.785398,0,-0.034907,0.715585,-0.872665,0,0.436332,0,0.034907,0.715585,-0.872665,0,0.436332,512.086,512.099,512.035,481.638,513.039,636.353
0,-0.087266,0.087266,0.001523,0.785398,0.087266,0.001523,0.785398,0,-0.034907,0.715585,-0.872665,0,0.436332,0,0.034907,0.715585,-0.872665,0,0.436332,512.087,512.103,512.012,481.524,512.999,636.321
0,-0.087266,0.087266,0.001523,0.785398,0.087266,0.001523,0.785398,0,-0.034907,0.715585,-0.872665,0,0.436332,0,0.034907,0.715585,-0.872665,0,0.436332,512.079,512.102,512.017,481.354,513.116,636.268
0,-0.087266,0.087266,0.001523,0.785398,0.087266,0.001523,0.785398,0,-0.034907,0.715585,-0.872665,0,0.436332,0,0.034907,0.715585,-0.872665,0,0.436332,512.071,512.096,512.022,481.255,513.145,636.241
0,-0.087266,0.087266,0.001523,0.785398,0.087266,0.001523,0.785398,0,-0.034907,0.715585,-0.872665,0,0.436332,0,0.034907,0.715585,-0.872665,0,0.436332,512.064,512.087,512.012,481.196,513.147,636.221
0,-0.087266,0.087266,0.001523,0.785398,0.087266,0.001523,0.785398,0,-0.034907,0.715585,-0.872665,0,0.436332,0,0.034907,0.715585,-0.872665,0,0.436332,512.056,512.077,512.007,481.142,513.176,636.205
0,-0.087266,0.087266,0.001523,0.785398,0.087266,0.001523,0.785398,0,-0.034907,0.715585,-0.872665,0,0.436332,0,0.034907,0.715585,-0.872665,0,0.436332,512.048,512.065,512.006,481.106,513.197,636.195
0,-0.087266,0.087266,0.001523,0.785398,0.087266,0.001523,0.785398,0,-0.034907,0.715585,-0.872665,0,0.436332,0,0.034907,0.715585,-0.872665,0,0.436332,512.036,512.054,512.016,481.087,513.227,636.185
0,-0.087266,0.087266,0.001523,0.785398,0.087266,0.001523,0.785398,0,-0.034907,0.715585,-0.872665,0,0.436332,0,0.034907,0.715585,-0.872665,0,0.436332,512.029,512.042,512.013,481.105,513.186,636.196
0,-0.087266,0.087266,0.001523,0.785398,0.087266,0.001523,0.785398,0,-0.034907,0.715585,-0.872665,0,0.436332,0,0.034907,0.715585,-0.872665,0,0.436332,512.021,512.032,512.009,481.119,513.186,636.196
0,-0.087266,0.087266,0.001523,0.785398,0.087266,0.001523,0.785398,0,-0.034907,0.715585,-0.872665,0,0.436332,0,0.034907,0.715585,-0.872665,0,0.436332,512.009,512.023,512.034,481.104,513.223,636.191
0,-0.087266,0.087266,0.001523,0.785398,0.087266,0.001523,0.785398,0,-0.034907,0.715585,-0.872665,0,0.436332,0,0.034907,0.715585,-0.872665,0,0.436332,512.011,512.014,511.999,481.199,513.086,636.228
0,-0.087266,0.087266,0.001523,0.785398,0.087266,0.001523,0.785398,0,-0.034907,0.715585,-0.872665,0,0.436332,0,0.034907,0.715585,-0.872665,0,0.436332,512.004,512.007,512.006,481.178,513.174,636.215
0,-0.087266,0.087266,0.001523,0.785398,0.087266,0.001523,0.785398,0,-0.034907,0.715585,-0.872665,0,0.436332,0,0.034907,0.715585,-0.872665,0,0.436332,511.994,512.002,512.04,481.161,513.221,636.206
0,-0.087266,0.087266,0.001523,0.785398,0.087266,0.001523,0.785398,0,-0.034907,0.715585,-0.872665,0,0.436332,0,0.034907,0.715585,-0.872665,0,0.436332,512,511.997,511.988,481.307,512.982,636.255
0,-0.087266,0.087266,0.001523,0.785398,0.087266,0.001523,0.785398,0,-0.034907,0.715585,-0.872665,0,0.436332,0,0.034907,0.715585,-0.872665,0,0.436332,511.994,511.994,511.993,481.253,513.128,636.239
0,-0.087266,0.087266,0.001523,0.785398,0.087266,0.001523,0.785398,0,-0.034907,0.715585,-0.872665,0,0.436332,0,0.034907,0.715585,-0.872665,0,0.436332,511.991,511.992,511.986,481.294,513.081,636.244
0,-0.087266,0.087266,0.001523,0.785398,0.087266,0.001523,0.785398,0,-0.034907,0.715585,-0.872665,0,0.436332,0,0.034907,0.715585,-0.872665,0,0.436332,511.988,511.99,511.984,481.308,513.067,636.252
0,-0.087266,0.087266,0.001523,0.785398,0.087266,0.001523,0.785398,0,-0.034907,0.715585,-0.872665,0,0.436332,0,0.034907,0.715585,-0.872665,0,0.436332,511.983,511.99,511.999,481.299,513.089,636.26
0,-0.087266,0.087266,0.001523,0.785398,0.087266,0.001523,0.785398,0,-0.034907,0.715585,-0.872665,0,0.436332,0,0.034907,0.715585,-0.872665,0,0.436332,511.984,511.99,511.988,481.35,513.008,636.265
0,-0.087266,0.087266,0.001523,0.785398,0.087266,0.001523,0.785398,0,-0.034907,0.715585,-0.872665,0,0.436332,0,0.034907,0.715585,-0.872665,0,0.436332,511.979,511.991,512.006,481.321,513.059,636.271
0,-0.087266,0.087266,0.001523,0.785398,0.087266,0.001523,0.785398,0,-0.034907,0.715585,-0.872665,0,0.436332,0,0.034907,0.715585,-0.872665,0,0.436332,511.984,511.991,511.988,481.375,512.959,636.273
0,-0.087266,0.087266,0.001523,0.785398,0.087266,0.001523,0.785398,0,-0.034907,0.715585,-0.872665,0,0.436332,0,0.034907,0.715585,-0.872665,0,0.436332,511.977,511.993,512.029,481.296,513.085,636.266
0,-0.087266,0.087266,0.001523,0.785398,0.087266,0.001523,0.785398,0,-0.034907,0.715585,-0.872665,0,0.436332,0,0.034907,0.715585,-0.872665,0,0.436332,511.988,511.993,511.985,481.42,512.857,636.292
0,-0.087266,0.087266,0.001523,0.785398,0.087266,0.001523,0.785398,0,-0.034907,0.715585,-0.872665,0,0.436332,0,0.034907,0.715585,-0.872665,0,0.436332,511.988,511.994,511.99,481.35,512.992,636.277
0,-0.087266,0.087266,0.001523,0.785398,0.087266,0.001523,0.785398,0,-0.034907,0.715585,-0.872665,0,0.436332,0,0.034907,0.715585,-0.872665,0,0.436332,511.986,511.996,512.001,481.346,513.003,636.276
0,-0.087266,0.087266,0.001523,0.785398,0.087266,0.001523,0.785398,0,-0.034907,0.715585,-0.872665,0,0.436332,0,0.034907,0.715585,-0.872665,0,0.436332,511.99,511.997,511.992,481.368,512.944,636.28
0,-0.087266,0.087266,0.001523,0.785398,0.087266,0.001523,0.785398,0,-0.034907,0.715585,-0.872665,0,0.436332,0,0.034907,0.715585,-0.872665,0,0.436332,511.985,511.998,512.016,481.328,513.02,636.276
0,-0.087266,0.087266,0.001523,0.785398,0.087266,0.001523,0.785398,0,-0.034907,0.715585,-0.872665,0,0.436332,0,0.034907,0.715585,-0.872665,0,0.436332,511.995,511.998,511.988,481.39,512.891,636.282
0,-0.087266,0.087266,0.001523,0.785398,0.087266,0.001523,0.785398,0,-0.034907,0.715585,-0.872665,0,0.436332,0,0.034907,0.715585,-0.872665,0,0.436332,511.994,511.999,511.996,481.338,512.986,636.276
0,-0.087266,0.087266,0.001523,0.785398,0.087266,0.001523,0.785398,0,-0.034907,0.715585,-0.872665,0,0.436332,0,0.034907,0.715585,-0.872665,0,0.436332,511.995,512,511.995,481.349,512.967,636.274
0,-0.087266,0.087266,0.001523,0.785398,0.087266,0.001523,0.785398,0,-0.034907,0.715585,-0.872665,0,0.436332,0,0.034907,0.715585,-0.872665,0,0.436332,511.998,512,511.989,481.354,512.95,636.275
0,-0.087266,0.087266,0.001523,0.785398,0.087266,0.001523,0.785398,0,-0.034907,0.715585,-0.872665,0,0.436332,0,0.034907,0.715585,-0.872665,0,0.436332,511.998,512,511.995,481.333,512.981,636.274
0,-0.087266,0.087266,0.001523,0.785398,0.087266,0.001523,0.785398,0,-0.034907,0.715585,-0.872665,0,0.436332,0,0.034907,0.715585,-0.872665,0,0.436332,511.997,512,511.997,481.338,512.978,636.272
0,-0.087266,0.087266,0.001523,0.785398,0.087266,0.001523,0.785398,0,-0.034907,0.715585,-0.872665,0,0.436332,0,0.034907,0.715585,-0.872665,0,0.436332,512,512,511.993,481.345,512.96,636.273
0,-0.087266,0.087266,0.001523,0.785398,0.087266,0.001523,0.785398,0,-0.034907,0.715585,-0.872665,0,0.436332,0,0.034907,0.715585,-0.872665,0,0.436332,511.998,512.001,512.006,481.321,513.002,636.274
0,-0.087266,0.087266,0.001523,0.785398,0.087266,0.001523,0.785398,0,-0.034907,0.715585,-0.872665,0,0.436332,0,0.034907,0.715585,-0.872665,0,0.436332,511.992,512.001,512.033,481.302,513.028,636.268
0,-0.087266,0.087266,0.001523,0.785398,0.087266,0.001523,0.785398,0,-0.034907,0.715585,-0.872665,0,0.436332,0,0.034907,0.715585,-0.872665,0,0.436332,512.002,512.001,512.003,481.378,512.902,636.281
0,-0.087266,0.087266,0.001523,0.785398,0.087266,0.001523,0.785398,0,-0.034907,0.715585,-0.872665,0,0.436332,0,0.034907,0.715585,-0.872665,0,0.436332,511.998,512.001,512.036,481.288,513.06,636.262
0,-0.087266,0.087266,0.001523,0.785398,0.087266,0.001523,0.785398,0,-0.034907,0.715585,-0.872665,0,0.436332,0,0.034907,0.715585,-0.872665,0,0.436332,512.009,512,511.987,481.401,512.866,636.281
0,-0.087266,0.087266,0.001523,0.785398,0.087266,0.001523,0.785398,0,-0.034907,0.715585,-0.872665,0,0.436332,0,0.034907,0.715585,-0.872665,0,0.436332,512.006,512,511.992,481.324,513.022,636.264
0,-0.087266,0.087266,0.001523,0.785398,0.087266,0.001523,0.785398,0,-0.034907,0.715585,-0.872665,0,0.436332,0,0.034907,0.715585,-0.872665,0,0.436332,512.006,512,511.991,481.333,513.005,636.267
0,-0.087266,0.087266,0.001523,0.785398,0.087266,0.001523,0.785398,0,-0.034907,0.715585,-0.872665,0,0.436332,0,0.034907,0.715585,-0.872665,0,0.436332,512.004,512,511.991,481.335,513.012,636.264
0,-0.087266,0.087266,0.001523,0.785398,0.087266,0.001523,0.785398,0,-0.034907,0.715585,-0.872665,0,0.436332,0,0.034907,0.715585,-0.872665,0,0.436332,512.002,512,511.999,481.325,513.027,636.266
0,-0.087266,0.087266,0.001523,0.785398,0.087266,0.001523,0.785398,0,-0.034907,0.715585,-0.872665,0,0.436332,0,0.034907,0.715585,-0.872665,0,0.436332,512.001,512,512.001,481.332,513.009,636.269
0,-0.087266,0.087266,0.001523,0.785398,0.087266,0.001523,0.785398,0,-0.034907,0.715585,-0.872665,0,0.436332,0,0.034907,0.715585,-0.872665,0,0.436332,511.994,512,512.033,481.293,513.072,636.263
0,-0.087266,0.087266,0.001523,0.785398,0.087266,0.001523,0.785398,0,-0.034907,0.715585,-0.872665,0,0.436332,0,0.034907,0.715585,-0.872665,0,0.436332,512.005,512,511.99,481.395,512.895,636.278
0,-0.087266,0.087266,0.001523,0.785398,0.087266,0.001523,0.785398,0,-0.034907,0.715585,-0.872665,0,0.436332,0,0.034907,0.715585,-0.872665,0,0.436332,512.002,511.999,511.999,481.325,513.035,636.267
0,-0.087266,0.087266,0.001523,0.785398,0.087266,0.001523,0.785398,0,-0.034907,0.715585,-0.872665,0,0.436332,0,0.034907,0.715585,-0.872665,0,0.436332,511.998,512,512.013,481.318,513.045,636.266
0,-0.087266,0.087266,0.001523,0.785398,0.087266,0.001523,0.785398,0,-0.034907,0.715585,-0.872665,0,0.436332,0,0.034907,0.715585,-0.872665,0,0.436332,511.995,512,512.032,481.312,513.042,636.263
0,-0.087266,0.087266,0.001523,0.785398,0.087266,0.001523,0.785398,0,-0.034907,0.715585,-0.872665,0,0.436332,0,0.034907,0.715585,-0.872665,0,0.436332,512.006,511.999,511.988,481.395,512.895,636.28
0,-0.087266,0.087266,0.001523,0.785398,0.087266,0.001523,0.785398,0,-0.034907,0.715585,-0.872665,0,0.436332,0,0.034907,0.715585,-0.872665,0,0.436332,511.995,512,512.03,481.279,513.108,636.259
0,-0.087266,0.087266,0.001523,0.785398,0.087266,0.001523,0.785398,0,-0.034907,0.715585,-0.872665,0,0.436332,0,0.034907,0.715585,-0.872665,0,0.436332,512.006,511.999,511.985,481.398,512.903,636.276
0,-0.087266,0.087266,0.001523,0.785398,0.087266,0.001523,0.785398,0,-0.034907,0.715585,-0.872665,0,0.436332,0,0.034907,0.715585,-0.872665,0,0.436332,511.996,512,512.033,481.269,513.127,636.257
0,-0.087266,0.087266,0.001523,0.785398,0.087266,0.001523,0.785398,0,-0.034907,0.715585,-0.872665,0,0.436332,0,0.034907,0.715585,-0.872665,0,0.436332,512.007,511.999,511.981,481.41,512.878,636.279
0,-0.087266,0.087266,0.001523,0.785398,0.087266,0.001523,0.785398,0,-0.034907,0.715585,-0.872665,0,0.436332,0,0.034907,0.715585,-0.872665,0,0.436332,512.005,511.999,511.981,481.335,513.026,636.263
0,-0.087266,0.087266,0.001523,0.785398,0.087266,0.001523,0.785398,0,-0.034907,0.715585,-0.872665,0,0.436332,0,0.034907,0.715585,-0.872665,0,0.436332,512.002,511.999,511.986,481.329,513.03,636.265
0,-0.087266,0.087266,0.001523,0.785398,0.087266,0.001523,0.785398,0,-0.034907,0.715585,-0.872665,0,0.436332,0,0.034907,0.715585,-0.872665,0,0.436332,511.989,512,512.032,481.286,513.134,636.262
0,-0.087266,0.087266,0.001523,0.785398,0.087266,0.001523,0.785398,0,-0.034907,0.715585,-0.872665,0,0.436332,0,0.034907,0.715585,-0.872665,0,0.436332,512.002,511.999,511.981,481.405,512.893,636.275
0,-0.087266,0.087266,0.001523,0.785398,0.087266,0.001523,0.785398,0,-0.034907,0.715585,-0.872665,0,0.436332,0,0.034907,0.715585,-0.872665,0,0.436332,512.001,511.999,511.986,481.33,513.008,636.268
0,-0.087266,0.087266,0.001523,0.785398,0.087266,0.001523,0.785398,0,-0.034907,0.715585,-0.872665,0,0.436332,0,0.034907,0.715585,-0.872665,0,0.436332,511.996,512,511.999,481.322,513.032,636.267
0,-0.087266,0.087266,0.001523,0.785398,0.087266,0.001523,0.785398,0,-0.034907,0.715585,-0.872665,0,0.436332,0,0.034907,0.715585,-0.872665,0,0.436332,511.999,511.999,511.989,481.352,512.973,636.27
0,-0.087266,0.087266,0.001523,0.785398,0.087266,0.001523,0.785398,0,-0.034907,0.715585,-0.872665,0,0.436332,0,0.034907,0.715585,-0.872665,0,0.436332,511.998,511.999,511.992,481.332,513.005,636.27
0,-0.087266,0.087266,0.001523,0.785398,0.087266,0.001523,0.785398,0,-0.034907,0.715585,-0.872665,0,0.436332,0,0.034907,0.715585,-0.872665,0,0.436332,511.998,511.999,511.988,481.345,512.988,636.269
0,-0.087266,0.087266,0.001523,0.785398,0.087266,0.001523,0.785398,0,-0.034907,0.715585,-0.872665,0,0.436332,0,0.034907,0.715585,-0.872665,0,0.436332,511.997,512,511.994,481.329,513.01,636.269
0,-0.087266,0.087266,0.001523,0.785398,0.087266,0.001523,0.785398,0,-0.034907,0.715585,-0.872665,0,0.436332,0,0.034907,0.715585,-0.872665,0,0.436332,511.997,512,511.994,481.339,512.997,636.268
0,-0.087266,0.087266,0.001523,0.785398,0.087266,0.001523,0.785398,0,-0.034907,0.715585,-0.872665,0,0.436332,0,0.034907,0.715585,-0.872665,0,0.436332,511.998,512,511.989,481.344,512.984,636.271
0,-0.087266,0.087266,0.001523,0.785398,0.087266,0.001523,0.785398,0,-0.034907,0.715585,-0.872665,0,0.436332,0,0.034907,0.715585,-0.872665,0,0.436332,511.996,511.999,511.998,481.331,513.013,636.269
0,-0.087266,0.087266,0.001523,0.785398,0.087266,0.001523,0.785398,0,-0.034907,0.715585,-0.872665,0,0.436332,0,0.034907,0.715585,-0.872665,0,0.436332,511.987,512,512.034,481.285,513.07,636.266
0,-0.087266,0.087266,0.001523,0.785398,0.087266,0.001523,0.785398,0,-0.034907,0.715585,-0.872665,0,0.436332,0,0.034907,0.715585,-0.872665,0,0.436332,511.992,512,512.031,481.336,512.995,636.274
0,-0.087266,0.087266,0.001523,0.785398,0.087266,0.001523,0.785398,0,-0.034907,0.715585,-0.872665,0,0.436332,0,0.034907,0.715585,-0.872665,0,0.436332,512.003,511.999,511.985,481.403,512.89,636.274
0,-0.087266,0.087266,0.001523,0.785398,0.087266,0.001523,0.785398,0,-0.034907,0.715585,-0.872665,0,0.436332,0,0.034907,0.715585,-0.872665,0,0.436332,512,512,511.99,481.333,513.009,636.266
0,-0.087266,0.087266,0.001523,0.785398,0.087266,0.001523,0.785398,0,-0.034907,0.715585,-0.872665,0,0.436332,0,0.034907,0.715585,-0.872665,0,0.436332,511.991,512,512.031,481.281,513.085,636.267
0,-0.087266,0.087266,0.001523,0.785398,0.087266,0.001523,0.785398,0,-0.034907,0.715585,-0.872665,0,0.436332,0,0.034907,0.715585,-0.872665,0,0.436332,512.003,511.999,511.984,481.403,512.888,636.275
0,-0.087266,0.087266,0.001523,0.785398,0.087266,0.001523,0.785398,0,-0.034907,0.715585,-0.872665,0,0.436332,0,0.034907,0.715585,-0.872665,0,0.436332,512.001,511.999,511.986,481.336,513.002,636.266
0,-0.087266,0.087266,0.001523,0.785398,0.087266,0.001523,0.785398,0,-0.034907,0.715585,-0.872665,0,0.436332,0,0.034907,0.715585,-0.872665,0,0.436332,511.992,512,512.031,481.274,513.098,636.265
0,-0.087266,0.087266,0.001523,0.785398,0.087266,0.001523,0.785398,0,-0.034907,0.715585,-0.872665,0,0.436332,0,0.034907,0.715585,-0.872665,0,0.436332,512.003,511.999,511.983,481.404,512.883,636.277
0,-0.087266,0.087266,0.001523,0.785398,0.087266,0.001523,0.785398,0,-0.034907,0.715585,-0.872665,0,0.436332,0,0.034907,0.715585,-0.872665,0,0.436332,512.002,511.999,511.983,481.34,512.995,636.267
0,-0.087266,0.087266,0.001523,0.785398,0.087266,0.001523,0.785398,0,-0.034907,0.715585,-0.872665,0,0.436332,0,0.034907,0.715585,-0.872665,0,0.436332,511.99,512,512.032,481.273,513.098,636.265
0,-0.087266,0.087266,0.001523,0.785398,0.087266,0.001523,0.785398,0,-0.034907,0.715585,-0.872665,0,0.436332,0,0.034907,0.715585,-0.872665,0,0.436332,512.003,511.999,511.984,481.401,512.89,636.275
0,-0.087266,0.087266,0.001523,0.785398,0.087266,0.001523,0.785398,0,-0.034907,0.715585,-0.872665,0,0.436332,0,0.034907,0.715585,-0.872665,0,0.436332,512.001,511.999,511.984,481.339,512.997,636.267
0,-0.087266,0.087266,0.001523,0.785398,0.087266,0.001523,0.785398,0,-0.034907,0.715585,-0.872665,0,0.436332,0,0.034907,0.715585,-0.872665,0,0.436332,512.001,511.999,511.987,481.333,512.999,636.269
0,-0.087266,0.087266,0.001523,0.785398,0.087266,0.001523,0.785398,0,-0.034907,0.715585,-0.872665,0,0.436332,0,0.034907,0.715585,-0.872665,0,0.436332,512,511.999,511.986,481.342,512.99,636.268
0,-0.087266,0.087266,0.001523,0.785398,0.087266,0.001523,0.785398,0,-0.034907,0.715585,-0.872665,0,0.436332,0,0.034907,0.715585,-0.872665,0,0.436332,511.995,512,512.004,481.318,513.033,636.268
0,-0.087266,0.087266,0.001523,0.785398,0.087266,0.001523,0.785398,0,-0.034907,0.715585,-0.872665,0,0.436332,0,0.034907,0.715585,-0.872665,0,0.436332,512,511.999,511.989,481.354,512.956,636.272
0,-0.087266,0.087266,0.001523,0.785398,0.087266,0.001523,0.785398,0,-0.034907,0.715585,-0.872665,0,0.436332,0,0.034907,0.715585,-0.872665,0,0.436332,511.998,512,511.993,481.335,513.002,636.267
0,-0.087266,0.087266,0.001523,0.785398,0.087266,0.001523,0.785398,0,-0.034907,0.715585,-0.872665,0,0.436332,0,0.034907,0.715585,-0.872665,0,0.436332,511.999,511.999,511.992,481.339,512.986,636.271
0,-0.087266,0.087266,0.001523,0.785398,0.087266,0.001523,0.785398,0,-0.034907,0.715585,-0.872665,0,0.436332,0,0.034907,0.715585,-0.872665,0,0.436332,511.997,512,511.995,481.336,513,636.267
0,-0.087266,0.087266,0.001523,0.785398,0.087266,0.001523,0.785398,0,-0.034907,0.715585,-0.872665,0,0.436332,0,0.034907,0.715585,-0.872665,0,0.436332,511.998,512,511.993,481.342,512.984,636.271
0,-0.087266,0.087266,0.001523,0.785398,0.087266,0.001523,0.785398,0,-0.034907,0.715585,-0.872665,0,0.436332,0,0.034907,0.715585,-0.872665,0,0.436332,511.998,512,511.996,481.335,512.995,636.27
0,-0.087266,0.087266,0.001523,0.785398,0.087266,0.001523,0.785398,0,-0.034907,0.715585,-0.872665,0,0.436332,0,0.034907,0.715585,-0.872665,0,0.436332,511.99,512,512.033,481.284,513.077,636.27
0,-0.087266,0.087266,0.001523,0.785398,0.087266,0.001523,0.785398,0,-0.034907,0.715585,-0.872665,0,0.436332,0,0.034907,0.715585,-0.872665,0,0.436332,512.001,511.999,511.986,481.406,512.883,636.273
0,-0.087266,0.087266,0.001523,0.785398,0.087266,0.001523,0.785398,0,-0.034907,0.715585,-0.872665,0,0.436332,0,0.034907,0.715585,-0.872665,0,0.436332,512,511.999,511.993,481.33,513.003,636.268
0,-0.087266,0.087266,0.001523,0.785398,0.087266,0.001523,0.785398,0,-0.034907,0.715585,-0.872665,0,0.436332,0,0.034907,0.715585,-0.872665,0,0.436332,511.997,512,512.002,481.328,513.013,636.268
0,-0.087266,0.087266,0.001523,0.785398,0.087266,0.001523,0.785398,0,-0.034907,0.715585,-0.872665,0,0.436332,0,0.034907,0.715585,-0.872665,0,0.436332,511.993,512,512.035,481.287,513.062,636.271
0,-0.087266,0.087266,0.001523,0.785398,0.087266,0.001523,0.785398,0,-0.034907,0.715585,-0.872665,0,0.436332,0,0.034907,0.715585,-0.872665,0,0.436332,511.998,512,512.006,481.388,512.923,636.272
0,-0.087266,0.087266,0.001523,0.785398,0.087266,0.001523,0.785398,0,-0.034907,0.715585,-0.872665,0,0.436332,0,0.034907,0.715585,-0.872665,0,0.436332,512.003,511.999,511.986,481.362,512.945,636.269
0,-0.087266,0.087266,0.001523,0.785398,0.087266,0.001523,0.785398,0,-0.034907,0.715585,-0.872665,0,0.436332,0,0.034907,0.715585,-0.872665,0,0.436332,512.002,511.999,511.984,481.341,512.986,636.269
0,-0.087266,0.087266,0.001523,0.785398,0.087266,0.001523,0.785398,0,-0.034907,0.715585,-0.872665,0,0.436332,0,0.034907,0.715585,-0.872665,0,0.436332,512.001,511.999,511.989,481.332,512.998,636.269
0,-0.087266,0.087266,0.001523,0.785398,0.087266,0.001523,0.785398,0,-0.034907,0.715585,-0.872665,0,0.436332,0,0.034907,0.715585,-0.872665,0,0.436332,511.992,512,512.032,481.278,513.09,636.267
0,-0.087266,0.087266,0.001523,0.785398,0.087266,0.001523,0.785398,0,-0.034907,0.715585,-0.872665,0,0.436332,0,0.034907,0.715585,-0.872665,0,0.436332,512.003,511.999,511.982,481.411,512.874,636.274
0,-0.087266,0.087266,0.001523,0.785398,0.087266,0.001523,0.785398,0,-0.034907,0.715585,-0.872665,0,0.436332,0,0.034907,0.715585,-0.872665,0,0.436332,512.002,511.999,511.988,481.33,513.002,636.268
0,-0.087266,0.087266,0.001523,0.785398,0.087266,0.001523,0.785398,0,-0.034907,0.715585,-0.872665,0,0.436332,0,0.034907,0.715585,-0.872665,0,0.436332,512.001,511.999,511.987,481.342,512.988,636.268
0,-0.087266,0.087266,0.001523,0.785398,0.087266,0.001523,0.785398,0,-0.034907,0.715585,-0.872665,0,0.436332,0,0.034907,0.715585,-0.872665,0,0.436332,511.99,512,512.031,481.283,513.08,636.267
0,-0.087266,0.087266,0.001523,0.785398,0.087266,0.001523,0.785398,0,-0.034907,0.715585,-0.872665,0,0.436332,0,0.034907,0.715585,-0.872665,0,0.436332,512.001,511.999,511.991,481.39,512.907,636.273
0,-0.087266,0.087266,0.001523,0.785398,0.087266,0.001523,0.785398,0,-0.034907,0.715585,-0.872665,0,0.436332,0,0.034907,0.715585,-0.872665,0,0.436332,512.002,511.999,511.987,481.346,512.978,636.27
0,-0.087266,0.087266,0.001523,0.785398,0.087266,0.001523,0.785398,0,-0.034907,0.715585,-0.872665,0,0.436332,0,0.034907,0.715585,-0.872665,0,0.436332,512.001,511.999,511.99,481.334,512.994,636.269
0,-0.087266,0.087266,0.001523,0.785398,0.087266,0.001523,0.785398,0,-0.034907,0.715585,-0.872665,0,0.436332,0,0.034907,0.715585,-0.872665,0,0.436332,512.001,511.999,511.987,481.345,512.982,636.269
0,-0.087266,0.087266,0.001523,0.785398,0.087266,0.001523,0.785398,0,-0.034907,0.715585,-0.872665,0,0.436332,0,0.034907,0.715585,-0.872665,0,0.436332,511.99,512,512.032,481.281,513.08,636.268
0,-0.087266,0.087266,0.001523,0.785398,0.087266,0.001523,0.785398,0,-0.034907,0.715585,-0.872665,0,0.436332,0,0.034907,0.715585,-0.872665,0,0.436332,511.993,512.001,512.031,481.335,512.993,636.272
0,-0.087266,0.087266,0.001523,0.785398,0.087266,0.001523,0.785398,0,-0.034907,0.715585,-0.872665,0,0.436332,0,0.034907,0.715585,-0.872665,0,0.436332,512.004,511.999,511.981,481.409,512.877,636.274
0,-0.087266,0.087266,0.001523,0.785398,0.087266,0.001523,0.785398,0,-0.034907,0.715585,-0.872665,0,0.436332,0,0.034907,0.715585,-0.872665,0,0.436332,512.001,511.999,511.992,481.326,513.014,636.267
0,-0.087266,0.087266,0.001523,0.785398,0.087266,0.001523,0.785398,0,-0.034907,0.715585,-0.872665,0,0.436332,0,0.034907,0.715585,-0.872665,0,0.436332,512.003,511.999,511.986,481.346,512.972,636.271
0,-0.087266,0.087266,0.001523,0.785398,0.087266,0.001523,0.785398,0,-0.034907,0.715585,-0.872665,0,0.436332,0,0.034907,0.715585,-0.872665,0,0.436332,512.001,511.999,511.987,481.34,512.991,636.268
0,-0.087266,0.087266,0.001523,0.785398,0.087266,0.001523,0.785398,0,-0.034907,0.715585,-0.872665,0,0.436332,0,0.034907,0.715585,-0.872665,0,0.436332,512,511.999,511.992,481.332,512.997,636.269
0,-0.087266,0.087266,0.001523,0.785398,0.087266,0.001523,0.785398,0,-0.034907,0.715585,-0.872665,0,0.436332,0,0.034907,0.715585,-0.872665,0,0.436332,511.999,511.999,511.991,481.342,512.986,636.269
0,-0.087266,0.087266,0.001523,0.785398,0.087266,0.001523,0.785398,0,-0.034907,0.715585,-0.872665,0,0.436332,0,0.034907,0.715585,-0.872665,0,0.436332,511.999,511.999,511.991,481.34,512.986,636.27
0,-0.087266,0.087266,0.001523,0.785398,0.087266,0.001523,0.785398,0,-0.034907,0.715585,-0.872665,0,0.436332,0,0.034907,0.715585,-0.872665,0,0.436332,511.991,512.002,512.037,481.275,513.089,636.269
0,-0.087266,0.087266,0.001523,0.785398,0.087266,0.001523,0.785398,0,-0.034907,0.715585,-0.872665,0,0.436332,0,0.034907,0.715585,-0.872665,0,0.436332,512.002,511.999,511.988,481.409,512.876,636.274
0,-0.087266,0.087266,0.001523,0.785398,0.087266,0.001523,0.785398,0,-0.034907,0.715585,-0.872665,0,0.436332,0,0.034907,0.715585,-0.872665,0,0.436332,512.002,511.999,511.985,481.343,512.98,636.27
0,-0.087266,0.087266,0.001523,0.785398,0.087266,0.001523,0.785398,0,-0.034907,0.715585,-0.872665,0,0.436332,0,0.034907,0.715585,-0.872665,0,0.436332,511.999,511.999,511.996,481.326,513.01,636.268
0,-0.087266,0.087266,0.001523,0.785398,0.087266,0.001523,0.785398,0,-0.034907,0.715585,-0.872665,0,0.436332,0,0.034907,0.715585,-0.872665,0,0.436332,512,511.999,511.989,481.349,512.972,636.27
0,-0.087266,0.087266,0.001523,0.785398,0.087266,0.001523,0.785398,0,-0.034907,0.715585,-0.872665,0,0.436332,0,0.034907,0.715585,-0.872665,0,0.436332,512,511.999,511.991,481.336,512.989,636.27
0,-0.087266,0.087266,0.001523,0.785398,0.087266,0.001523,0.785398,0,-0.034907,0.715585,-0.872665,0,0.436332,0,0.034907,0.715585,-0.872665,0,0.436332,511.99,512.002,512.034,481.285,513.076,636.267
0,-0.087266,0.087266,0.001523,0.785398,0.087266,0.001523,0.785398,0,-0.034907,0.715585,-0.872665,0,0.436332,0,0.034907,0.715585,-0.872665,0,0.436332,512.002,511.999,511.986,481.403,512.883,636.275
0,-0.087266,0.087266,0.001523,0.785398,0.087266,0.001523,0.785398,0,-0.034907,0.715585,-0.872665,0,0.436332,0,0.034907,0.715585,-0.872665,0,0.436332,512.001,511.999,511.991,481.332,512.996,636.269
0,-0.087266,0.087266,0.001523,0.785398,0.087266,0.001523,0.785398,0,-0.034907,0.715585,-0.872665,0,0.436332,0,0.034907,0.715585,-0.872665,0,0.436332,512.001,511.999,511.989,481.344,512.982,636.269
0,-0.087266,0.087266,0.001523,0.785398,0.087266,0.001523,0.785398,0,-0.034907,0.715585,-0.872665,0,0.436332,0,0.034907,0.715585,-0.872665,0,0.436332,512,511.999,511.994,481.334,512.993,636.27
0,-0.087266,0.087266,0.001523,0.785398,0.087266,0.001523,0.785398,0,-0.034907,0.715585,-0.872665,0,0.436332,0,0.034907,0.715585,-0.872665,0,0.436332,511.998,512,511.999,481.335,512.998,636.268
0,-0.087266,0.087266,0.001523,0.785398,0.087266,0.001523,0.785398,0,-0.034907,0.715585,-0.872665,0,0.436332,0,0.034907,0.715585,-0.872665,0,0.436332,511.993,512.002,512.033,481.288,513.061,636.272
0,-0.087266,0.087266,0.001523,0.785398,0.087266,0.001523,0.785398,0,-0.034907,0.715585,-0.872665,0,0.436332,0,0.034907,0.715585,-0.872665,0,0.436332,512.003,511.999,511.986,481.407,512.877,636.272
0,-0.087266,0.087266,0.001523,0.785398,0.087266,0.001523,0.785398,0,-0.034907,0.715585,-0.872665,0,0.436332,0,0.034907,0.715585,-0.872665,0,0.436332,512.002,511.999,511.991,481.332,512.996,636.269
0,-0.087266,0.087266,0.001523,0.785398,0.087266,0.001523,0.785398,0,-0.034907,0.715585,-0.872665,0,0.436332,0,0.034907,0.715585,-0.872665,0,0.436332,512.002,511.999,511.987,481.347,512.975,636.269
0,-0.087266,0.087266,0.001523,0.785398,0.087266,0.001523,0.785398,0,-0.034907,0.715585,-0.872665,0,0.436332,0,0.034907,0.715585,-0.872665,0,0.436332,512,511.999,511.993,481.332,512.996,636.269
0,-0.087266,0.087266,0.001523,0.785398,0.087266,0.001523,0.785398,0,-0.034907,0.715585,-0.872665,0,0.436332,0,0.034907,0.715585,-0.872665,0,0.436332,512,511.999,511.99,481.344,512.981,636.269
0,-0.087266,0.087266,0.001523,0.785398,0.087266,0.001523,0.785398,0,-0.034907,0.715585,-0.872665,0,0.436332,0,0.034907,0.715585,-0.872665,0,0.436332,512,511.999,511.994,481.335,512.989,636.27
0,-0.087266,0.087266,0.001523,0.785398,0.087266,0.001523,0.785398,0,-0.034907,0.715585,-0.872665,0,0.436332,0,0.034907,0.715585,-0.872665,0,0.436332,511.999,511.999,511.993,481.342,512.983,636.269
0,-0.087266,0.087266,0.001523,0.785398,0.087266,0.001523,0.785398,0,-0.034907,0.715585,-0.872665,0,0.436332,0,0.034907,0.715585,-0.872665,0,0.436332,511.998,512,511.997,481.336,512.993,636.269
0,-0.087266,0.087266,0.001523,0.785398,0.087266,0.001523,0.785398,0,-0.034907,0.715585,-0.872665,0,0.436332,0,0.034907,0.715585,-0.872665,0,0.436332,511.999,511.999,511.995,481.342,512.976,636.272
0,-0.087266,0.087266,0.001523,0.785398,0.087266,0.001523,0.785398,0,-0.034907,0.715585,-0.872665,0,0.436332,0,0.034907,0.715585,-0.872665,0,0.436332,511.999,512,511.996,481.34,512.986,636.269
0,-0.087266,0.087266,0.001523,0.785398,0.087266,0.001523,0.785398,0,-0.034907,0.715585,-0.872665,0,0.436332,0,0.034907,0.715585,-0.872665,0,0.436332,511.991,512.002,512.034,481.287,513.065,636.271
0,-0.087266,0.087266,0.001523,0.785398,0.087266,0.001523,0.785398,0,-0.034907,0.715585,-0.872665,0,0.436332,0,0.034907,0.715585,-0.872665,0,0.436332,512.002,511.999,511.992,481.397,512.89,636.273
0,-0.087266,0.087266,0.001523,0.785398,0.087266,0.001523,0.785398,0,-0.034907,0.715585,-0.872665,0,0.436332,0,0.034907,0.715585,-0.872665,0,0.436332,512.001,511.999,511.99,481.344,512.98,636.269
0,-0.087266,0.087266,0.001523,0.785398,0.087266,0.001523,0.785398,0,-0.034907,0.715585,-0.872665,0,0.436332,0,0.034907,0.715585,-0.872665,0,0.436332,512,511.999,511.993,481.337,512.988,636.269
0,-0.087266,0.087266,0.001523,0.785398,0.087266,0.001523,0.785398,0,-0.034907,0.715585,-0.872665,0,0.436332,0,0.034907,0.715585,-0.872665,0,0.436332,512,511.999,511.998,481.334,512.992,636.271
0,-0.087266,0.087266,0.001523,0.785398,0.087266,0.001523,0.785398,0,-0.034907,0.715585,-0.872665,0,0.436332,0,0.034907,0.715585,-0.872665,0,0.436332,511.999,512,512,481.339,512.987,636.268
0,-0.087266,0.087266,0.001523,0.785398,0.087266,0.001523,0.785398,0,-0.034907,0.715585,-0.872665,0,0.436332,0,0.034907,0.715585,-0.872665,0,0.436332,511.999,511.999,512,481.34,512.983,636.272
0,-0.087266,0.087266,0.001523,0.785398,0.087266,0.001523,0.785398,0,-0.034907,0.715585,-0.872665,0,0.436332,0,0.034907,0.715585,-0.872665,0,0.436332,511.997,512,512.006,481.334,512.997,636.269
0,-0.087266,0.087266,0.001523,0.785398,0.087266,0.001523,0.785398,0,-0.034907,0.715585,-0.872665,0,0.436332,0,0.034907,0.715585,-0.872665,0,0.436332,512,512,511.997,481.352,512.96,636.27
0,-0.087266,0.087266,0.001523,0.785398,0.087266,0.001523,0.785398,0,-0.034907,0.715585,-0.872665,0,0.436332,0,0.034907,0.715585,-0.872665,0,0.436332,512.001,511.999,511.995,481.342,512.977,636.271
0,-0.087266,0.087266,0.001523,0.785398,0.087266,0.001523,0.785398,0,-0.034907,0.715585,-0.872665,0,0.436332,0,0.034907,0.715585,-0.872665,0,0.436332,511.999,512,512,481.336,512.995,636.269
0,-0.087266,0.087266,0.001523,0.785398,0.087266,0.001523,0.785398,0,-0.034907,0.715585,-0.872665,0,0.436332,0,0.034907,0.715585,-0.872665,0,0.436332,511.999,512,512.009,481.331,513.015,636.283
0,-0.087266,0.087266,0.001523,0.785398,0.087266,0.001523,0.785398,0,-0.034907,0.715585,-0.872665,0,0.436332,0,0.034907,0.715585,-0.872665,0,0.436332,511.68,511.842,512.002,478.934,512.49,633.468
0,-0.087266,0.087266,0.001523,0.785398,0.087266,0.001523,0.785398,0,-0.034907,0.715585,-0.872665,0,0.436332,0,0.034907,0.715585,-0.872665,0,0.436332,510.96,511.936,509.904,481.953,507.275,646.896
0,-0.087266,0.087266,0.001523,0.785398,0.087266,0.001523,0.785398,0,-0.034907,0.715585,-0.872665,0,0.436332,0,0.034907,0.715585,-0.872665,0,0.436332,511.673,512.111,509.927,485.535,520.194,632.55
0,-0.087266,0.087266,0.001523,0.785398,0.087266,0.001523,0.785398,0,-0.034907,0.715585,-0.872665,0,0.436332,0,0.034907,0.715585,-0.872665,0,0.436332,511.729,512.221,510.047,483.509,512.622,634.972
0,-0.087266,0.087266,0.001523,0.785398,0.087266,0.001523,0.785398,0,-0.034907,0.715585,-0.872665,0,0.436332,0,0.034907,0.715585,-0.872665,0,0.436332,511.768,512.318,510.123,483.082,512.343,636.169
0,-0.087266,0.087266,0.001523,0.785398,0.087266,0.001523,0.785398,0,-0.034907,0.715585,-0.872665,0,0.436332,0,0.034907,0.715585,-0.872665,0,0.436332,511.802,512.377,510.174,482.399,512.218,636.285
0,-0.087266,0.087266,0.001523,0.785398,0.087266,0.001523,0.785398,0,-0.034907,0.715585,-0.872665,0,0.436332,0,0.034907,0.715585,-0.872665,0,0.436332,511.833,512.422,510.237,482.051,512.201,636.286
0,-0.087266,0.087266,0.001523,0.785398,0.087266,0.001523,0.785398,0,-0.034907,0.715585,-0.872665,0,0.436332,0,0.034907,0.715585,-0.872665,0,0.436332,511.859,512.443,510.5,481.68,512.606,636.199
0,-0.087266,0.087266,0.001523,0.785398,0.087266,0.001523,0.785398,0,-0.034907,0.715585,-0.872665,0,0.436332,0,0.034907,0.715585,-0.872665,0,0.436332,511.873,512.451,510.779,481.417,512.434,636.087
0,-0.087266,0.087266,0.001523,0.785398,0.087266,0.001523,0.785398,0,-0.034907,0.715585,-0.872665,0,0.436332,0,0.034907,0.715585,-0.872665,0,0.436332,511.931,512.414,511.659,480.93,513.792,635.774
0,-0.087266,0.087266,0.001523,0.785398,0.087266,0.001523,0.785398,0,-0.034907,0.715585,-0.872665,0,0.436332,0,0.034907,0.715585,-0.872665,0,0.436332,511.9,512.407,511.866,481.026,511.684,635.901
0,-0.087266,0.087266,0.001523,0.785398,0.087266,0.001523,0.785398,0,-0.034907,0.715585,-0.872665,0,0.436332,0,0.034907,0.715585,-0.872665,0,0.436332,511.9,512.399,511.959,480.836,511.58,636.033
0,-0.087266,0.087266,0.001523,0.785398,0.087266,0.001523,0.785398,0,-0.034907,0.715585,-0.872665,0,0.436332,0,0.034907,0.715585,-0.872665,0,0.436332,512.083,512.402,512.418,479.916,507.05,624.358
0,-0.087266,0.087266,0.001523,0.785398,0.087266,0.001523,0.785398,0,-0.034907,0.715585,-0.872665,0,0.436332,0,0.034907,0.715585,-0.872665,0,0.436332,511.835,512.293,511.915,477.443,519.957,654.808
0,-0.087266,0.087266,0.001523,0.785398,0.087266,0.001523,0.785398,0,-0.034907,0.715585,-0.872665,0,0.436332,0,0.034907,0.715585,-0.872665,0,0.436332,511.703,512.269,511.857,482.253,515.729,631.225
0,-0.087266,0.087266,0.001523,0.785398,0.087266,0.001523,0.785398,0,-0.034907,0.715585,-0.872665,0,0.436332,0,0.034907,0.715585,-0.872665,0,0.436332,511.582,512.257,511.871,480.871,514.379,634.589
0,-0.087266,0.087266,0.001523,0.785398,0.087266,0.001523,0.785398,0,-0.034907,0.715585,-0.872665,0,0.436332,0,0.034907,0.715585,-0.872665,0,0.436332,511.5,512.24,511.87,480.499,513.819,635.292
0,-0.087266,0.087266,0.001523,0.785398,0.087266,0.001523,0.785398,0,-0.034907,0.715585,-0.872665,0,0.436332,0,0.034907,0.715585,-0.872665,0,0.436332,511.444,512.215,511.896,480.272,513.261,635.47
0,-0.087266,0.087266,0.001523,0.785398,0.087266,0.001523,0.785398,0,-0.034907,0.715585,-0.872665,0,0.436332,0,0.034907,0.715585,-0.872665,0,0.436332,511.411,512.183,511.949,480.115,512.737,635.574
0,-0.087266,0.087266,0.001523,0.785398,0.087266,0.001523,0.785398,0,-0.034907,0.715585,-0.872665,0,0.436332,0,0.034907,0.715585,-0.872665,0,0.436332,511.393,512.145,512.031,479.969,512.371,635.686
0,-0.087266,0.087266,0.001523,0.785398,0.087266,0.001523,0.785398,0,-0.034907,0.715585,-0.872665,0,0.436332,0,0.034907,0.715585,-0.872665,0,0.436332,511.419,512.08,512.121,479.179,511.343,636.057
0,-0.087266,0.087266,0.001523,0.785398,0.087266,0.001523,0.785398,0,-0.034907,0.715585,-0.872665,0,0.436332,0,0.034907,0.715585,-0.872665,0,0.436332,511.473,512.003,512.135,479.016,510.411,636.037
0,-0.087266,0.087266,0.001523,0.785398,0.087266,0.001523,0.785398,0,-0.034907,0.715585,-0.872665,0,0.436332,0,0.034907,0.715585,-0.872665,0,0.436332,511.533,511.933,512.13,479.259,510.328,635.837
0,-0.087266,0.087266,0.001523,0.785398,0.087266,0.001523,0.785398,0,-0.034907,0.715585,-0.872665,0,0.436332,0,0.034907,0.715585,-0.872665,0,0.436332,511.593,511.872,512.112,479.499,510.307,635.87
0,-0.087266,0.087266,0.001523,0.785398,0.087266,0.001523,0.785398,0,-0.034907,0.715585,-0.872665,0,0.436332,0,0.034907,0.715585,-0.872665,0,0.436332,511.652,511.823,512.1,479.732,510.332,635.928
0,-0.087266,0.087266,0.001523,0.785398,0.087266,0.001523,0.785398,0,-0.034907,0.715585,-0.872665,0,0.436332,0,0.034907,0.715585,-0.872665,0,0.436332,511.706,511.784,512.09,479.991,510.421,635.992
0,-0.087266,0.087266,0.001523,0.785398,0.087266,0.001523,0.785398,0,-0.034907,0.715585,-0.872665,0,0.436332,0,0.034907,0.715585,-0.872665,0,0.436332,511.756,511.757,512.074,480.23,510.508,636.063
0,-0.087266,0.087266,0.001523,0.785398,0.087266,0.001523,0.785398,0,-0.034907,0.715585,-0.872665,0,0.436332,0,0.034907,0.715585,-0.872665,0,0.436332,511.8,511.739,512.06,480.456,510.631,636.119
0,-0.087266,0.087266,0.001523,0.785398,0.087266,0.001523,0.785398,0,-0.034907,0.715585,-0.872665,0,0.436332,0,0.034907,0.715585,-0.872665,0,0.436332,511.838,511.73,512.051,480.675,510.753,636.162
0,-0.087266,0.087266,0.001523,0.785398,0.087266,0.001523,0.785398,0,-0.034907,0.715585,-0.872665,0,0.436332,0,0.034907,0.715585,-0.872665,0,0.436332,511.87,511.729,512.038,480.881,510.855,636.207
0,-0.087266,0.087266,0.001523,0.785398,0.087266,0.001523,0.785398,0,-0.034907,0.715585,-0.872665,0,0.436332,0,0.034907,0.715585,-0.872665,0,0.436332,511.897,511.734,512.033,481.06,510.974,636.237
0,-0.087266,0.087266,0.001523,0.785398,0.087266,0.001523,0.785398,0,-0.034907,0.715585,-0.872665,0,0.436332,0,0.034907,0.715585,-0.872665,0,0.436332,511.92,511.746,512.023,481.219,511.054,636.27
0,-0.087266,0.087266,0.001523,0.785398,0.087266,0.001523,0.785398,0,-0.034907,0.715585,-0.872665,0,0.436332,0,0.034907,0.715585,-0.872665,0,0.436332,511.938,511.763,512.017,481.35,511.142,636.292
0,-0.087266,0.087266,0.001523,0.785398,0.087266,0.001523,0.785398,0,-0.034907,0.715585,-0.872665,0,0.436332,0,0.034907,0.715585,-0.872665,0,0.436332,511.953,511.783,512.015,481.454,511.215,636.309
0,-0.087266,0.087266,0.001523,0.785398,0.087266,0.001523,0.785398,0,-0.034907,0.715585,-0.872665,0,0.436332,0,0.034907,0.715585,-0.872665,0,0.436332,511.966,511.807,512.009,481.536,511.256,636.328
0,-0.087266,0.087266,0.001523,0.785398,0.087266,0.001523,0.785398,0,-0.034907,0.715585,-0.872665,0,0.436332,0,0.034907,0.715585,-0.872665,0,0.436332,511.975,511.831,512.016,481.589,511.305,636.328
0,-0.087266,0.087266,0.001523,0.785398,0.087266,0.001523,0.785398,0,-0.034907,0.715585,-0.872665,0,0.436332,0,0.034907,0.715585,-0.872665,0,0.436332,511.984,511.857,512.015,481.629,511.32,636.341
0,-0.087266,0.087266,0.001523,0.785398,0.087266,0.001523,0.785398,0,-0.034907,0.715585,-0.872665,0,0.436332,0,0.034907,0.715585,-0.872665,0,0.436332,511.991,511.883,512.017,481.646,511.348,636.343
0,-0.087266,0.087266,0.001523,0.785398,0.087266,0.001523,0.785398,0,-0.034907,0.715585,-0.872665,0,0.436332,0,0.034907,0.715585,-0.872665,0,0.436332,511.998,511.908,512.023,481.626,511.374,636.344
0,-0.087266,0.087266,0.001523,0.785398,0.087266,0.001523,0.785398,0,-0.034907,0.715585,-0.872665,0,0.436332,0,0.034907,0.715585,-0.872665,0,0.436332,512.004,511.932,512.021,481.609,511.378,636.346
0,-0.087266,0.087266,0.001523,0.785398,0.087266,0.001523,0.785398,0,-0.034907,0.715585,-0.872665,0,0.436332,0,0.034907,0.715585,-0.872665,0,0.436332,512.012,511.956,512.004,481.622,511.346,636.355
0,-0.087266,0.087266,0.001523,0.785398,0.087266,0.001523,0.785398,0,-0.034907,0.715585,-0.872665,0,0.436332,0,0.034907,0.715585,-0.872665,0,0.436332,512.017,511.977,512.019,481.519,511.432,636.322
0,-0.087266,0.087266,0.001523,0.785398,0.087266,0.001523,0.785398,0,-0.034907,0.715585,-0.872665,0,0.436332,0,0.034907,0.715585,-0.872665,0,0.436332,512.02,511.993,512.039,481.438,511.467,636.302
0,-0.087266,0.087266,0.001523,0.785398,0.087266,0.001523,0.785398,0,-0.034907,0.715585,-0.872665,0,0.436332,0,0.034907,0.715585,-0.872665,0,0.436332,512.025,512.007,512.04,481.407,511.451,636.295
0,-0.087266,0.087266,0.001523,0.785398,0.087266,0.001523,0.785398,0,-0.034907,0.715585,-0.872665,0,0.436332,0,0.034907,0.715585,-0.872665,0,0.436332,512.029,512.02,512.029,481.38,511.452,636.286
0,-0.087266,0.087266,0.001523,0.785398,0.087266,0.001523,0.785398,0,-0.034907,0.715585,-0.872665,0,0.436332,0,0.034907,0.715585,-0.872665,0,0.436332,512.033,512.03,512.014,481.347,511.46,636.276
0,-0.087266,0.087266,0.001523,0.785398,0.087266,0.001523,0.785398,0,-0.034907,0.715585,-0.872665,0,0.436332,0,0.034907,0.715585,-0.872665,0,0.436332,512.034,512.038,512.031,481.24,511.536,636.255
0,-0.087266,0.087266,0.001523,0.785398,0.087266,0.001523,0.785398,0,-0.031556,0.707207,-0.861495,0.004189,0.432143,0,0.042268,0.703602,-0.859781,0.013839,0.429895,512.14,511.8,511.935,482.854,518.781,645.732
0,-0.087266,0.087266,0.001523,0.785398,0.087266,0.001523,0.785398,0,-0.028205,0.69883,-0.850325,0.008378,0.427954,0,0.04963,0.691619,-0.846896,0.027678,0.423459,512.149,511.618,511.817,482.51,519.351,644.48
0,-0.087266,0.087266,0.001523,0.785398,0.087266,0.001523,0.785398,0,-0.024853,0.690452,-0.839155,0.012566,0.423766,0,0.056992,0.679636,-0.834012,0.041516,0.417022,512.107,511.476,511.687,482.446,519.206,643.65
0,-0.087266,0.087266,0.001523,0.785398,0.087266,0.001523,0.785398,0,-0.021502,0.682075,-0.827985,0.016755,0.419577,0,0.064354,0.667653,-0.821127,0.055355,0.410585,512.038,511.351,511.572,482.485,518.726,641.597
0,-0.087266,0.087266,0.001523,0.785398,0.087266,0.001523,0.785398,0,-0.018151,0.673697,-0.816814,0.020944,0.415388,0,0.071715,0.65567,-0.808243,0.069194,0.404148,511.947,511.245,511.484,482.443,518.39,640.594
0,-0.087266,0.087266,0.001523,0.785398,0.087266,0.001523,0.785398,0,-0.0148,0.665319,-0.805644,0.025133,0.411199,0,0.079077,0.643687,-0.795359,0.083033,0.397712,511.838,511.154,511.411,482.428,518.057,639.678
0,-0.087266,0.087266,0.001523,0.785398,0.087266,0.001523,0.785398,0,-0.011449,0.656942,-0.794474,0.029321,0.407011,0,0.086439,0.631704,-0.782474,0.096872,0.391275,511.714,511.073,511.384,482.414,517.797,638.907
0,-0.087266,0.087266,0.001523,0.785398,0.087266,0.001523,0.785398,0,-0.008098,0.648564,-0.783304,0.03351,0.402822,0,0.0938,0.619721,-0.76959,0.110711,0.384838,511.567,510.981,511.426,481.926,517.795,638.364
0,-0.087266,0.087266,0.001523,0.785398,0.087266,0.001523,0.785398,0,-0.004747,0.640187,-0.772134,0.037699,0.398633,0,0.101162,0.607738,-0.756705,0.124549,0.378401,511.042,510.897,512.069,481.799,526.697,640.824
0,-0.087266,0.087266,0.001523,0.785398,0.087266,0.001523,0.785398,0,-0.001396,0.631809,-0.760964,0.041888,0.394444,0,0.108524,0.595755,-0.743821,0.138388,0.371965,510.604,510.82,512.757,483.129,522.982,635.576
0,-0.087266,0.087266,0.001523,0.785398,0.087266,0.001523,0.785398,0,0.001955,0.623432,-0.749794,0.046077,0.390255,0,0.115886,0.583772,-0.730936,0.152227,0.365528,509.769,510.486,512.975,474.947,529.289,640.132
0,-0.087266,0.087266,0.001523,0.785398,0.087266,0.001523,0.785398,0,0.005306,0.615054,-0.738624,0.050265,0.386067,0,0.123247,0.571789,-0.718052,0.166066,0.359091,509.185,510.08,514.815,477.224,530.232,634.635
0,-0.087266,0.087266,0.001523,0.785398,0.087266,0.001523,0.785398,0,0.008657,0.606676,-0.727454,0.054454,0.381878,0,0.130609,0.559806,-0.705168,0.179905,0.352654,508.77,510.073,513.562,482.639,519.927,635.019
0,-0.087266,0.087266,0.001523,0.785398,0.087266,0.001523,0.785398,0,0.012008,0.598299,-0.716283,0.058643,0.377689,0,0.137971,0.547823,-0.692283,0.193743,0.346218,508.46,510.052,512.277,482.855,517.034,634.624
0,-0.087266,0.087266,0.001523,0.785398,0.087266,0.001523,0.785398,0,0.015359,0.589921,-0.705113,0.062832,0.3735,0,0.145333,0.53584,-0.679399,0.207582,0.339781,508.334,510.28,510.899,487.377,511.571,637.79
0,-0.087266,0.087266,0.001523,0.785398,0.087266,0.001523,0.785398,0,0.01871,0.581544,-0.693943,0.067021,0.369311,0,0.152694,0.523857,-0.666514,0.221421,0.333344,508.217,510.402,509.456,485.756,510.765,635.533
0,-0.087266,0.087266,0.001523,0.785398,0.087266,0.001523,0.785398,0,0.022061,0.573166,-0.682773,0.071209,0.365123,0,0.160056,0.511874,-0.65363,0.23526,0.326907,508.106,510.422,509.541,484.747,511.006,634.677
0,-0.087266,0.087266,0.001523,0.785398,0.087266,0.001523,0.785398,0,0.025412,0.564788,-0.671603,0.075398,0.360934,0,0.167418,0.499891,-0.640746,0.249099,0.320471,508.125,510.417,509.669,484.507,508.18,634.621
0,-0.087266,0.087266,0.001523,0.785398,0.087266,0.001523,0.785398,0,0.028763,0.556411,-0.660433,0.079587,0.356745,0,0.17478,0.487908,-0.627861,0.262938,0.314034,508.602,510.385,509.885,484.965,497.928,631.101
0,-0.087266,0.087266,0.001523,0.785398,0.087266,0.001523,0.785398,0,0.032114,0.548033,-0.649263,0.083776,0.352556,0,0.182141,0.475925,-0.614977,0.276776,0.307597,508.975,510.266,510.068,482.304,500.091,636.694
0,-0.087266,0.087266,0.001523,0.785398,0.087266,0.001523,0.785398,0,0.035465,0.539656,-0.638093,0.087964,0.348368,0,0.189503,0.463942,-0.602092,0.290615,0.301161,509.235,510.195,510.206,483.104,501.888,636.332
0,-0.087266,0.087266,0.001523,0.785398,0.087266,0.001523,0.785398,0,0.038816,0.531278,-0.626923,0.092153,0.344179,0,0.196865,0.451959,-0.589208,0.304454,0.294724,510.161,510.107,510.481,482.51,492.308,638.898
0,-0.087266,0.087266,0.001523,0.785398,0.087266,0.001523,0.785398,0,0.042167,0.522901,-0.615752,0.096342,0.33999,0,0.204226,0.439976,-0.576323,0.318293,0.288287,510.382,510.006,510.593,483.596,501.539,636.357
0,-0.087266,0.087266,0.001523,0.785398,0.087266,0.001523,0.785398,0,0.045518,0.514523,-0.604582,0.100531,0.335801,0,0.211588,0.427993,-0.563439,0.332132,0.28185,510.581,509.931,510.693,483.718,502.265,636.163
0,-0.087266,0.087266,0.001523,0.785398,0.087266,0.001523,0.785398,0,0.048869,0.506145,-0.593412,0.10472,0.331612,0,0.21895,0.41601,-0.550555,0.34597,0.275414,510.758,509.875,510.785,483.725,502.623,636.206
0,-0.087266,0.087266,0.001523,0.785398,0.087266,0.001523,0.785398,0,0.05222,0.497768,-0.582242,0.108908,0.327424,0,0.226312,0.404027,-0.53767,0.359809,0.268977,510.913,509.797,510.868,484.191,502.933,636.05
0,-0.087266,0.087266,0.001523,0.785398,0.087266,0.001523,0.785398,0,0.055571,0.48939,-0.571072,0.113097,0.323235,0,0.233673,0.392044,-0.524786,0.373648,0.26254,511.05,509.723,510.943,484.521,503.16,636.012
0,-0.087266,0.087266,0.001523,0.785398,0.087266,0.001523,0.785398,0,0.058922,0.481013,-0.559902,0.117286,0.319046,0,0.241035,0.380061,-0.511901,0.387487,0.256103,511.173,509.659,511.012,484.896,503.332,636.022
0,-0.087266,0.087266,0.001523,0.785398,0.087266,0.001523,0.785398,0,0.062273,0.472635,-0.548732,0.121475,0.314857,0,0.248397,0.368078,-0.499017,0.401326,0.249667,511.284,509.603,511.074,485.305,503.47,636.064
0,-0.087266,0.087266,0.001523,0.785398,0.087266,0.001523,0.785398,0,0.065624,0.464257,-0.537562,0.125664,0.310668,0,0.255759,0.356095,-0.486133,0.415164,0.24323,511.389,509.561,511.131,485.784,503.527,636.092
0,-0.087266,0.087266,0.001523,0.785398,0.087266,0.001523,0.785398,0,0.068975,0.45588,-0.526392,0.129852,0.30648,0,0.26312,0.344112,-0.473248,0.429003,0.236793,511.487,509.531,511.183,486.273,503.567,636.169
0,-0.087266,0.087266,0.001523,0.785398,0.087266,0.001523,0.785398,0,0.072326,0.447502,-0.515221,0.134041,0.302291,0,0.270482,0.332129,-0.460364,0.442842,0.230356,511.583,509.515,511.231,486.804,503.566,636.237
0,-0.087266,0.087266,0.001523,0.785398,0.087266,0.001523,0.785398,0,0.075678,0.439125,-0.504051,0.13823,0.298102,0,0.277844,0.320146,-0.447479,0.456681,0.22392,511.674,509.513,511.275,487.32,503.586,636.345
0,-0.087266,0.087266,0.001523,0.785398,0.087266,0.001523,0.785398,0,0.079029,0.430747,-0.492881,0.142419,0.293913,0,0.285206,0.308163,-0.434595,0.47052,0.217483,511.764,509.525,511.316,487.877,503.56,636.416
0,-0.087266,0.087266,0.001523,0.785398,0.087266,0.001523,0.785398,0,0.08238,0.42237,-0.481711,0.146607,0.289725,0,0.292567,0.29618,-0.42171,0.484359,0.211046,511.854,509.551,511.354,488.421,503.534,636.516
0,-0.087266,0.087266,0.001523,0.785398,0.087266,0.001523,0.785398,0,0.085731,0.413992,-0.470541,0.150796,0.285536,0,0.299929,0.284197,-0.408826,0.498197,0.20461,511.941,509.59,511.389,488.942,503.55,636.634
0,-0.087266,0.087266,0.001523,0.785398,0.087266,0.001523,0.785398,0,0.089082,0.405614,-0.459371,0.154985,0.281347,0,0.307291,0.272214,-0.395942,0.512036,0.198173,512.024,509.641,511.42,489.449,503.614,636.748
0,-0.087266,0.087266,0.001523,0.785398,0.087266,0.001523,0.785398,0,0.092433,0.397237,-0.448201,0.159174,0.277158,0,0.314653,0.260231,-0.383057,0.525875,0.191736,512.099,509.703,511.448,489.911,503.776,636.886
0,-0.087266,0.087266,0.001523,0.785398,0.087266,0.001523,0.785398,0,0.095784,0.388859,-0.437031,0.163363,0.272969,0,0.322014,0.248248,-0.370173,0.539714,0.185299,512.155,509.77,511.471,490.248,504.183,637.082
0,-0.087266,0.087266,0.001523,0.785398,0.087266,0.001523,0.785398,0,0.099135,0.380482,-0.425861,0.167551,0.268781,0,0.329376,0.236265,-0.357288,0.553553,0.178863,512.2,509.842,511.489,490.583,504.517,637.187
0,-0.087266,0.087266,0.001523,0.785398,0.087266,0.001523,0.785398,0,0.102486,0.372104,-0.41469,0.17174,0.264592,0,0.336738,0.224282,-0.344404,0.567391,0.172426,512.248,509.939,511.502,491.202,504.492,637.137
0,-0.087266,0.087266,0.001523,0.785398,0.087266,0.001523,0.785398,0,0.105837,0.363726,-0.40352,0.175929,0.260403,0,0.344099,0.212299,-0.33152,0.58123,0.165989,512.301,510.055,511.511,491.808,504.483,637.228
0,-0.087266,0.087266,0.001523,0.785398,0.087266,0.001523,0.785398,0,0.109188,0.355349,-0.39235,0.180118,0.256214,0,0.351461,0.200316,-0.318635,0.595069,0.159552,512.358,510.19,511.517,492.408,504.461,637.329
0,-0.087266,0.087266,0.001523,0.785398,0.087266,0.001523,0.785398,0,0.112539,0.346971,-0.38118,0.184306,0.252026,0,0.358823,0.188333,-0.305751,0.608908,0.153116,512.42,510.343,511.52,492.999,504.429,637.426
0,-0.087266,0.087266,0.001523,0.785398,0.087266,0.001523,0.785398,0,0.11589,0.338594,-0.37001,0.188495,0.247837,0,0.366185,0.17635,-0.292866,0.622747,0.146679,512.5,510.534,511.517,493.86,504.072,637.382
0,-0.087266,0.087266,0.001523,0.785398,0.087266,0.001523,0.785398,0,0.119241,0.330216,-0.35884,0.192684,0.243648,0,0.373546,0.164367,-0.279982,0.636586,0.140242,512.575,510.721,511.518,494.161,504.348,637.746
0,-0.087266,0.087266,0.001523,0.785398,0.087266,0.001523,0.785398,0,0.122592,0.321839,-0.34767,0.196873,0.239459,0,0.380908,0.152384,-0.267097,0.650424,0.133805,512.64,510.912,511.517,494.397,504.64,637.843
0,-0.087266,0.087266,0.001523,0.785398,0.087266,0.001523,0.785398,0,0.125943,0.313461,-0.3365,0.201062,0.23527,0,0.38827,0.140401,-0.254213,0.664263,0.127369,512.694,511.107,511.514,494.626,504.933,637.857
0,-0.087266,0.087266,0.001523,0.785398,0.087266,0.001523,0.785398,0,0.129294,0.305083,-0.32533,0.20525,0.231082,0,0.395632,0.128418,-0.241329,0.678102,0.120932,512.737,511.31,511.506,494.849,505.222,637.843
0,-0.087266,0.087266,0.001523,0.785398,0.087266,0.001523,0.785398,0,0.132645,0.296706,-0.314159,0.209439,0.226893,0,0.402993,0.116435,-0.228444,0.691941,0.114495,512.77,511.52,511.494,495.067,505.506,637.813
0,-0.087266,0.087266,0.001523,0.785398,0.087266,0.001523,0.785398,0,0.135996,0.288328,-0.302989,0.213628,0.222704,0,0.410355,0.104452,-0.21556,0.70578,0.108058,512.841,511.772,511.475,495.82,504.764,637.445
0,-0.087266,0.087266,0.001523,0.785398,0.087266,0.001523,0.785398,0,0.139347,0.279951,-0.291819,0.217817,0.218515,0,0.417717,0.092469,-0.202675,0.719618,0.101622,512.898,512.026,511.453,496.013,505.061,637.805
0,-0.087266,0.087266,0.001523,0.785398,0.087266,0.001523,0.785398,0,0.142698,0.271573,-0.280649,0.222006,0.214326,0,0.425079,0.080486,-0.189791,0.733457,0.095185,512.946,512.289,511.428,496.196,505.35,637.818
0,-0.087266,0.087266,0.001523,0.785398,0.087266,0.001523,0.785398,0,0.146049,0.263195,-0.269479,0.226194,0.210138,0,0.43244,0.068503,-0.176907,0.747296,0.088748,512.962,512.457,511.612,479.344,505.537,636.545
0,-0.087266,0.087266,0.001523,0.785398,0.087266,0.001523,0.785398,0,0.1494,0.254818,-0.258309,0.230383,0.205949,0,0.439802,0.05652,-0.164022,0.761135,0.082312,512.993,512.587,511.593,488.591,505.798,637.148
0,-0.087266,0.087266,0.001523,0.785398,0.087266,0.001523,0.785398,0,0.152751,0.24644,-0.247139,0.234572,0.20176,0,0.447164,0.044537,-0.151138,0.774974,0.075875,512.569,512.69,511.452,488.876,515.311,634.505
0,-0.087266,0.087266,0.001523,0.785398,0.087266,0.001523,0.785398,0,0.156102,0.238063,-0.235969,0.238761,0.197571,0,0.454525,0.032554,-0.138253,0.788813,0.069438,512.341,512.805,511.412,488.372,507.872,636.472
0,-0.087266,0.087266,0.001523,0.785398,0.087266,0.001523,0.785398,0,0.159453,0.229685,-0.224799,0.242949,0.193383,0,0.461887,0.020571,-0.125369,0.802651,0.063001,512.249,512.908,511.358,488.346,508.599,636.76
0,-0.087266,0.087266,0.001523,0.785398,0.087266,0.001523,0.785398,0,0.162804,0.221308,-0.213628,0.247138,0.189194,0,0.469249,0.008588,-0.112484,0.81649,0.056565,512.15,513.004,511.302,488.389,508.843,636.771
0,-0.087266,0.087266,0.001523,0.785398,0.087266,0.001523,0.785398,0,0.166155,0.21293,-0.202458,0.251327,0.185005,0,0.476611,-0.003395,-0.0996,0.830329,0.050128,512.04,513.093,511.245,488.435,509.083,636.72
0,-0.087266,0.087266,0.001523,0.785398,0.087266,0.001523,0.785398,0,0.169506,0.204552,-0.191288,0.255516,0.180816,0,0.483972,-0.015378,-0.086716,0.844168,0.043691,511.919,513.175,511.189,488.464,509.298,636.66
0,-0.087266,0.087266,0.001523,0.785398,0.087266,0.001523,0.785398,0,0.172857,0.196175,-0.180118,0.259705,0.176627,0,0.491334,-0.027361,-0.073831,0.858007,0.037254,511.79,512.357,511.215,496.906,510.075,640.163
0,-0.087266,0.087266,0.001523,0.785398,0.087266,0.001523,0.785398,0,0.174533,0.191986,-0.174533,0.261799,0.174533,0,0.495017,-0.035163,-0.071147,0.864932,0.035983,511.525,512.118,511.313,487.4,507.166,636.377
0,-0.087266,0.087266,0.001523,0.785398,0.087266,0.001523,0.785398,0,0.174533,0.191986,-0.174533,0.261799,0.174533,0,0.495022,-0.038786,-0.078664,0.864943,0.039878,511.112,512.039,511.405,485.14,505.475,635.389
0,-0.087266,0.087266,0.001523,0.785398,0.087266,0.001523,0.785398,0,0.174533,0.191986,-0.174533,0.261799,0.174533,0,0.495026,-0.042408,-0.086181,0.864954,0.043772,510.734,512.002,511.448,484.94,505.909,635.571
0,-0.087266,0.087266,0.001523,0.785398,0.087266,0.001523,0.785398,0,0.174533,0.191986,-0.174533,0.261799,0.174533,0,0.49503,-0.045532,-0.092825,0.864965,0.047291,510.388,512.001,511.458,484.984,506.343,635.803
0,-0.087266,0.087266,0.001523,0.785398,0.087266,0.001523,0.785398,0,0.174533,0.191986,-0.174533,0.261799,0.174533,0,0.495034,-0.047826,-0.098013,0.864974,0.050186,510.066,512.028,511.433,485.188,506.694,635.979
0,-0.087266,0.087266,0.001523,0.785398,0.087266,0.001523,0.785398,0,0.174533,0.191986,-0.174533,0.261799,0.174533,0,0.495038,-0.05012,-0.103201,0.864984,0.05308,509.764,512.054,511.396,485.471,506.955,636.105
0,-0.087266,0.087266,0.001523,0.785398,0.087266,0.001523,0.785398,0,0.174533,0.191986,-0.174533,0.261799,0.174533,0,0.495042,-0.052224,-0.10808,0.864993,0.055856,509.473,512.078,511.351,485.787,507.164,636.207
0,-0.087266,0.087266,0.001523,0.785398,0.087266,0.001523,0.785398,0,0.174533,0.191986,-0.174533,0.261799,0.174533,0,0.495045,-0.053759,-0.112034,0.865002,0.058274,509.19,512.104,511.292,486.151,507.323,636.285
0,-0.087266,0.087266,0.001523,0.785398,0.087266,0.001523,0.785398,0,0.174533,0.191986,-0.174533,0.261799,0.174533,0,0.495048,-0.055295,-0.115988,0.86501,0.060692,508.903,512.103,511.25,486.737,507.405,636.691
0,-0.087266,0.087266,0.001523,0.785398,0.087266,0.001523,0.785398,0,0.174533,0.191986,-0.174533,0.261799,0.174533,0,0.495051,-0.056769,-0.119848,0.865019,0.063078,508.611,512.077,511.215,487.332,507.44,636.751
0,-0.087266,0.087266,0.001523,0.785398,0.087266,0.001523,0.785398,0,0.174533,0.191986,-0.174533,0.261799,0.174533,0,0.495054,-0.057813,-0.123053,0.865026,0.065239,508.314,512.048,511.18,487.695,507.481,636.472
0,-0.087266,0.087266,0.001523,0.785398,0.087266,0.001523,0.785398,0,0.174533,0.191986,-0.174533,0.261799,0.174533,0,0.495057,-0.058858,-0.126259,0.865034,0.067401,509.071,512.04,511.329,487.675,491.747,641.288
0,-0.087266,0.087266,0.001523,0.785398,0.087266,0.001523,0.785398,0,0.174533,0.191986,-0.174533,0.261799,0.174533,0,0.49506,-0.059903,-0.129465,0.865041,0.069562,509.018,511.998,511.339,488.095,501.868,637.744
0,-0.087266,0.087266,0.001523,0.785398,0.087266,0.001523,0.785398,0,0.174533,0.191986,-0.174533,0.261799,0.174533,0,0.495063,-0.06063,-0.132222,0.865048,0.071592,509.004,511.954,511.352,488.312,501.617,637.404
0,-0.087266,0.087266,0.001523,0.785398,0.087266,0.001523,0.785398,0,0.174533,0.191986,-0.174533,0.261799,0.174533,0,0.495066,-0.061358,-0.13498,0.865056,0.073622,509.019,511.903,511.364,488.484,500.852,637.344
0,-0.087266,0.087266,0.001523,0.785398,0.087266,0.001523,0.785398,0,0.174533,0.191986,-0.174533,0.261799,0.174533,0,0.495069,-0.062085,-0.137737,0.865063,0.075651,509.055,511.852,511.416,488.598,500.209,637.341
0,-0.087266,0.087266,0.001523,0.785398,0.087266,0.001523,0.785398,0,0.174533,0.191986,-0.174533,0.261799,0.174533,0,0.495072,-0.062651,-0.140296,0.86507,0.077643,509.112,511.795,511.447,488.711,499.502,637.357
0,-0.087266,0.087266,0.001523,0.785398,0.087266,0.001523,0.785398,0,0.174533,0.191986,-0.174533,0.261799,0.174533,0,0.495074,-0.063195,-0.142826,0.865077,0.07963,509.188,511.747,511.478,488.854,498.842,637.373
0,-0.087266,0.087266,0.001523,0.785398,0.087266,0.001523,0.785398,0,0.174533,0.191986,-0.174533,0.261799,0.174533,0,0.495077,-0.063738,-0.145356,0.865084,0.081616,509.283,511.742,511.496,489.182,498.202,637.404
0,-0.087266,0.087266,0.001523,0.785398,0.087266,0.001523,0.785398,0,0.174533,0.191986,-0.174533,0.261799,0.174533,0,0.49508,-0.064229,-0.147853,0.865092,0.083623,509.394,511.741,511.516,489.393,497.617,637.435
0,-0.087266,0.087266,0.001523,0.785398,0.087266,0.001523,0.785398,0,0.174533,0.191986,-0.174533,0.261799,0.174533,0,0.495083,-0.064702,-0.15034,0.865099,0.085637,509.519,511.746,511.54,489.59,497.071,637.459
0,-0.087266,0.087266,0.001523,0.785398,0.087266,0.001523,0.785398,0,0.174533,0.191986,-0.174533,0.261799,0.174533,0,0.495086,-0.065176,-0.152826,0.865106,0.08765,509.657,511.754,511.565,489.766,496.569,637.481
0,-0.087266,0.087266,0.001523,0.785398,0.087266,0.001523,0.785398,0,0.174533,0.191986,-0.174533,0.261799,0.174533,0,0.495089,-0.065668,-0.155387,0.865114,0.089718,509.805,511.765,511.593,489.923,496.114,637.502
0,-0.087266,0.087266,0.001523,0.785398,0.087266,0.001523,0.785398,0,0.174533,0.191986,-0.174533,0.261799,0.174533,0,0.495092,-0.066171,-0.157992,0.865123,0.09182,509.962,511.772,511.624,490.06,495.711,637.527
0,-0.087266,0.087266,0.001523,0.785398,0.087266,0.001523,0.785398,0,0.174533,0.191986,-0.174533,0.261799,0.174533,0,0.495095,-0.066674,-0.160597,0.865132,0.093921,510.127,511.776,511.658,490.165,495.359,637.546
0,-0.087266,0.087266,0.001523,0.785398,0.087266,0.001523,0.785398,0,0.174533,0.191986,-0.174533,0.261799,0.174533,0,0.495099,-0.067238,-0.163332,0.865141,0.096093,510.297,511.777,511.695,490.253,495.058,637.563
0,-0.087266,0.087266,0.001523,0.785398,0.087266,0.001523,0.785398,0,0.174533,0.191986,-0.174533,0.261799,0.174533,0,0.495103,-0.067862,-0.166199,0.86515,0.098336,510.472,511.772,511.731,490.316,494.808,637.578
0,-0.087266,0.087266,0.001523,0.785398,0.087266,0.001523,0.785398,0,0.174533,0.191986,-0.174533,0.261799,0.174533,0,0.495107,-0.068486,-0.169066,0.86516,0.100579,510.649,511.767,511.772,490.337,494.622,637.583
0,-0.087266,0.087266,0.001523,0.785398,0.087266,0.001523,0.785398,0,0.174533,0.191986,-0.174533,0.261799,0.174533,0,0.495111,-0.069185,-0.172078,0.86517,0.102892,510.827,511.756,511.809,490.37,494.472,637.591
0,-0.087266,0.087266,0.001523,0.785398,0.087266,0.001523,0.785398,0,0.174533,0.191986,-0.174533,0.261799,0.174533,0,0.495115,-0.070009,-0.175332,0.865182,0.105322,511.005,511.74,511.851,490.381,494.381,637.596
0,-0.087266,0.087266,0.001523,0.785398,0.087266,0.001523,0.785398,0,0.174533,0.191986,-0.174533,0.261799,0.174533,0,0.49512,-0.070832,-0.178586,0.865194,0.107752,511.181,511.724,511.893,490.363,494.345,637.594
0,-0.087266,0.087266,0.001523,0.785398,0.087266,0.001523,0.785398,0,0.174533,0.191986,-0.174533,0.261799,0.174533,0,0.495124,-0.071723,-0.181962,0.865207,0.110238,511.354,511.703,511.93,490.366,494.344,637.596
0,-0.087266,0.087266,0.001523,0.785398,0.087266,0.001523,0.785398,0,0.174533,0.191986,-0.174533,0.261799,0.174533,0,0.49513,-0.072814,-0.185707,0.865221,0.112892,511.524,511.674,511.973,490.363,494.397,637.598
0,-0.087266,0.087266,0.001523,0.785398,0.087266,0.001523,0.785398,0,0.174533,0.191986,-0.174533,0.261799,0.174533,0,0.495135,-0.073905,-0.189452,0.865235,0.115546,511.688,511.645,512.009,490.343,494.487,637.598
0,-0.087266,0.087266,0.001523,0.785398,0.087266,0.001523,0.785398,0,0.174533,0.191986,-0.174533,0.261799,0.174533,0,0.495141,-0.075037,-0.193269,0.865249,0.118231,511.847,511.615,512.046,490.324,494.625,637.593
0,-0.087266,0.087266,0.001523,0.785398,0.087266,0.001523,0.785398,0,0.174533,0.191986,-0.174533,0.261799,0.174533,0,0.495148,-0.07645,-0.197586,0.865266,0.121135,511.998,511.574,512.086,490.343,494.791,637.598
0,-0.087266,0.087266,0.001523,0.785398,0.087266,0.001523,0.785398,0,0.174533,0.191986,-0.174533,0.261799,0.174533,0,0.495155,-0.077864,-0.201904,0.865284,0.12404,512.142,511.532,512.118,490.328,494.991,637.599
0,-0.087266,0.087266,0.001523,0.785398,0.087266,0.001523,0.785398,0,0.174533,0.191986,-0.174533,0.261799,0.174533,0,0.495162,-0.079277,-0.206221,0.865301,0.126944,512.278,511.492,512.153,490.316,495.234,637.593
0,-0.087266,0.087266,0.001523,0.785398,0.087266,0.001523,0.785398,0,0.174533,0.191986,-0.174533,0.261799,0.174533,0,0.49517,-0.081054,-0.211169,0.865322,0.130115,512.405,511.437,512.184,490.377,495.477,637.608
0,-0.087266,0.087266,0.001523,0.785398,0.087266,0.001523,0.785398,0,0.174533,0.191986,-0.174533,0.261799,0.174533,0,0.495178,-0.08283,-0.216117,0.865343,0.133286,512.523,511.384,512.215,490.373,495.767,637.612
0,-0.087266,0.087266,0.001523,0.785398,0.087266,0.001523,0.785398,0,0.174533,0.191986,-0.174533,0.261799,0.174533,0,0.495186,-0.084607,-0.221065,0.865364,0.136458,512.63,511.331,512.246,490.388,496.078,637.611
0,-0.087266,0.087266,0.001523,0.785398,0.087266,0.001523,0.785398,0,0.174533,0.191986,-0.174533,0.261799,0.174533,0,0.495196,-0.086727,-0.226597,0.865389,0.139869,512.729,511.265,512.272,490.474,496.383,637.63
0,-0.087266,0.087266,0.001523,0.785398,0.087266,0.001523,0.785398,0,0.174533,0.191986,-0.174533,0.261799,0.174533,0,0.495206,-0.088896,-0.232212,0.865415,0.143314,512.817,511.199,512.302,490.502,496.727,637.64
0,-0.087266,0.087266,0.001523,0.785398,0.087266,0.001523,0.785398,0,0.174533,0.191986,-0.174533,0.261799,0.174533,0,0.495216,-0.091066,-0.237826,0.865441,0.14676,512.895,511.133,512.323,490.557,497.072,637.651
0,-0.087266,0.087266,0.001523,0.785398,0.087266,0.001523,0.785398,0,0.174533,0.191986,-0.174533,0.261799,0.174533,0,0.495227,-0.093544,-0.243954,0.86547,0.15041,512.962,511.057,512.348,490.656,497.422,637.671
0,-0.087266,0.087266,0.001523,0.785398,0.087266,0.001523,0.785398,0,0.174533,0.191986,-0.174533,0.261799,0.174533,0,0.495239,-0.096124,-0.250254,0.865501,0.154129,513.02,510.978,512.373,490.729,497.786,637.691
0,-0.087266,0.087266,0.001523,0.785398,0.087266,0.001523,0.785398,0,0.174533,0.191986,-0.174533,0.261799,0.174533,0,0.495251,-0.098705,-0.256553,0.865532,0.157847,513.067,510.899,512.391,490.817,498.149,637.71
0,-0.087266,0.087266,0.001523,0.785398,0.087266,0.001523,0.785398,0,0.174533,0.191986,-0.174533,0.261799,0.174533,0,0.495265,-0.101549,-0.263282,0.865567,0.161733,513.105,510.811,512.415,490.938,498.513,637.734
0,-0.087266,0.087266,0.001523,0.785398,0.087266,0.001523,0.785398,0,0.174533,0.191986,-0.174533,0.261799,0.174533,0,0.495279,-0.10455,-0.27027,0.865604,0.165719,513.133,510.718,512.432,491.064,498.868,637.766
0,-0.087266,0.087266,0.001523,0.785398,0.087266,0.001523,0.785398,0,0.174533,0.191986,-0.174533,0.261799,0.174533,0,0.495294,-0.107551,-0.277257,0.865641,0.169705,513.175,511.726,512.17,489.742,498.754,636.386
0,-0.087266,0.087266,0.001523,0.785398,0.087266,0.001523,0.785398,0,0.174533,0.191986,-0.174533,0.261799,0.174533,0,0.495309,-0.110765,-0.284585,0.865681,0.173819,513.184,511.783,512.172,492.002,499.559,637.759
0,-0.087266,0.087266,0.001523,0.785398,0.087266,0.001523,0.785398,0,0.174533,0.191986,-0.174533,0.261799,0.174533,0,0.495326,-0.114191,-0.292254,0.865724,0.178062,513.184,511.818,512.173,492.295,499.91,637.813
0,-0.087266,0.087266,0.001523,0.785398,0.087266,0.001523,0.785398,0,0.174533,0.191986,-0.174533,0.261799,0.174533,0,0.495343,-0.117618,-0.299922,0.865768,0.182304,513.176,511.851,512.175,492.301,500.253,637.822
0,-0.087266,0.087266,0.001523,0.785398,0.087266,0.001523,0.785398,0,0.174533,0.191986,-0.174533,0.261799,0.174533,0,0.495361,-0.121202,-0.307841,0.865814,0.186639,513.159,511.882,512.178,492.283,500.572,637.822
0,-0.087266,0.087266,0.001523,0.785398,0.087266,0.001523,0.785398,0,0.174533,0.191986,-0.174533,0.261799,0.174533,0,0.495381,-0.125051,-0.316178,0.865865,0.191127,513.136,511.911,512.174,492.254,500.859,637.823
0,-0.087266,0.087266,0.001523,0.785398,0.087266,0.001523,0.785398,0,0.174533,0.191986,-0.174533,0.261799,0.174533,0,0.495401,-0.1289,-0.324515,0.865917,0.195614,513.105,511.938,512.175,492.175,501.163,637.83
0,-0.087266,0.087266,0.001523,0.785398,0.087266,0.001523,0.785398,0,0.174533,0.191986,-0.174533,0.261799,0.174533,0,0.495422,-0.132854,-0.333015,0.86597,0.20016,513.068,511.962,512.168,492.111,501.428,637.829
0,-0.087266,0.087266,0.001523,0.785398,0.087266,0.001523,0.785398,0,0.174533,0.191986,-0.174533,0.261799,0.174533,0,0.495445,-0.137121,-0.342002,0.86603,0.20488,513.026,511.981,512.166,492.035,501.677,637.824
0,-0.087266,0.087266,0.001523,0.785398,0.087266,0.001523,0.785398,0,0.174533,0.191986,-0.174533,0.261799,0.174533,0,0.495469,-0.141388,-0.35099,0.86609,0.209601,512.978,511.998,512.157,491.944,501.913,637.831
0,-0.087266,0.087266,0.001523,0.785398,0.087266,0.001523,0.785398,0,0.174533,0.191986,-0.174533,0.261799,0.174533,0,0.4955,-0.143588,-0.36169,0.866172,0.218101,512.923,512.01,512.149,491.792,502.185,637.841
0,-0.087266,0.087266,0.001523,0.785398,0.087266,0.001523,0.785398,0,0.174533,0.191986,-0.174533,0.261799,0.174533,0,0.495574,-0.080171,-0.228074,0.86636,0.246504,512.825,512.293,512.081,492.169,502.936,638.293
0,-0.087266,0.087266,0.001523,0.785398,0.087266,0.001523,0.785398,0,0.174533,0.191986,-0.174533,0.261799,0.174533,0,0.495544,0.131924,0.370558,0.866283,0.238633,512.737,512.568,511.99,492.302,503.182,637.58
0,-0.087266,0.087266,0.001523,0.785398,0.087266,0.001523,0.785398,0,0.174533,0.191986,-0.174533,0.261799,0.174533,0,0.495432,0.127932,0.334383,0.865996,0.20645,512.891,515.4,510.014,481.505,508.444,634.192
0,-0.087266,0.087266,0.001523,0.785398,0.087266,0.001523,0.785398,0,0.174533,0.191986,-0.174533,0.261799,0.174533,0,0.495347,0.132565,0.304496,0.865777,0.17193,512.474,518.078,508.453,479.075,503.175,633.299
0,-0.087266,0.087266,0.001523,0.785398,0.087266,0.001523,0.785398,0,0.174533,0.191986,-0.174533,0.261799,0.174533,0,0.495286,0.143102,0.278141,0.865622,0.135039,512.387,518.684,506.984,491.291,501.728,649.148
0,-0.087266,0.087266,0.001523,0.785398,0.087266,0.001523,0.785398,0,0.174533,0.191986,-0.174533,0.261799,0.174533,0,0.495248,0.156573,0.252057,0.865525,0.095483,512.225,517.594,506.933,506.617,499.776,637.339
0,-0.087266,0.087266,0.001523,0.785398,0.087266,0.001523,0.785398,0,0.174533,0.191986,-0.174533,0.261799,0.174533,0,0.495231,0.170087,0.223134,0.865481,0.053046,512.238,515.837,506.798,518.615,500.367,636.18
0,-0.087266,0.087266,0.001523,0.785398,0.087266,0.001523,0.785398,0,0.174533,0.191986,-0.174533,0.261799,0.174533,0,0.495234,0.181044,0.188857,0.865488,0.016641,512.19,515.393,509.658,502.104,503.767,636.34
0,-0.087266,0.087266,0.001523,0.785398,0.087266,0.001523,0.785398,0,0.174533,0.191986,-0.174533,0.261799,0.174533,0,0.495254,0.187254,0.147508,0.865539,0.039745,512.14,514.571,511.377,497.75,503.549,637.255
0,-0.087266,0.087266,0.001523,0.785398,0.087266,0.001523,0.785398,0,0.174533,0.191986,-0.174533,0.261799,0.174533,0,0.49529,0.834018,0.014974,0.865681,0.088721,512.111,514.178,511.602,495.974,501.919,637.85
0,-0.087266,0.087266,0.001523,0.785398,0.087266,0.001523,0.785398,0,0.162947,0.220951,-0.213153,0.247317,0.189015,0,0.46983,0.979941,-0.062858,0.817822,0.116673,511.331,514.607,511.838,500.124,483.372,636.712
0,-0.087266,0.087266,0.001523,0.785398,0.087266,0.001523,0.785398,0,0.148687,0.2566,-0.260685,0.229492,0.20684,0,0.438484,0.960888,-0.121223,0.758879,0.139711,510.623,516.117,512.167,475.474,478.635,643.556
0,-0.087266,0.087266,0.001523,0.785398,0.087266,0.001523,0.785398,0,0.134428,0.29225,-0.308218,0.211667,0.224665,0,0.407138,0.941835,-0.179587,0.699937,0.16275,510.054,517.517,512.624,460.498,477.541,630.068
0,-0.087266,0.087266,0.001523,0.785398,0.087266,0.001523,0.785398,0,0.120168,0.327899,-0.35575,0.193843,0.242489,0,0.375792,0.922783,-0.237952,0.640995,0.185788,509.707,518.024,513.417,471.193,479.603,633.445
0,-0.087266,0.087266,0.001523,0.785398,0.087266,0.001523,0.785398,0,0.105908,0.363548,-0.403283,0.176018,0.260314,0,0.344446,0.90373,-0.296316,0.582053,0.208827,509.499,518.631,514.266,475.95,481.508,631.713
0,-0.087266,0.087266,0.001523,0.785398,0.087266,0.001523,0.785398,0,0.091648,0.399198,-0.450815,0.158193,0.278139,0,0.313101,0.884677,-0.35468,0.523111,0.231865,509.383,518.899,514.773,474.881,481.753,631.634
0,-0.087266,0.087266,0.001523,0.785398,0.087266,0.001523,0.785398,0,0.077389,0.434847,-0.498347,0.140369,0.295963,0,0.281755,0.865625,-0.413045,0.464169,0.254904,509.262,517.769,516.066,489.002,485.992,632.834
0,-0.087266,0.087266,0.001523,0.785398,0.087266,0.001523,0.785398,0,0.063129,0.470496,-0.54588,0.122544,0.313788,0,0.250409,0.846572,-0.471409,0.405227,0.277942,509.056,513.644,519.318,497.317,492.086,638.934
0,-0.087266,0.087266,0.001523,0.785398,0.087266,0.001523,0.785398,0,0.048869,0.506145,-0.593412,0.10472,0.331612,0,0.219063,0.827519,-0.529774,0.346285,0.300981,508.657,512.943,522.378,476.686,496.608,606.068
0,-0.087266,0.087266,0.001523,0.785398,0.087266,0.001523,0.785398,0,0.03461,0.541795,-0.640945,0.086895,0.349437,0,0.187717,0.808467,-0.588138,0.287343,0.324019,508.666,513.529,522.427,467.238,487.352,635.539
0,-0.087266,0.087266,0.001523,0.785398,0.087266,0.001523,0.785398,0,0.02035,0.577444,-0.688477,0.06907,0.367262,0,0.156372,0.789414,-0.646503,0.228401,0.347058,508.588,515.197,521.288,466.763,481.389,622.135
0,-0.087266,0.087266,0.001523,0.785398,0.087266,0.001523,0.785398,0,0.00609,0.613093,-0.736009,0.051246,0.385086,0,0.125026,0.770361,-0.704867,0.169459,0.370096,508.578,517.356,519.488,470.148,479.102,616.724
0,-0.087266,0.087266,0.001523,0.785398,0.087266,0.001523,0.785398,0,-0.00817,0.648743,-0.783542,0.033421,0.402911,0,0.09368,0.751309,-0.763232,0.110516,0.393135,508.926,519.288,518.758,471.213,485.597,613.322
0,-0.087266,0.087266,0.001523,0.785398,0.087266,0.001523,0.785398,0,-0.022429,0.684392,-0.831074,0.015597,0.420735,0,0.062334,0.732256,-0.821596,0.051574,0.416173,508.895,520.023,518.52,473.341,483.057,616.197
0,-0.087266,0.087266,0.001523,0.785398,0.087266,0.001523,0.785398,0,-0.034907,0.715585,-0.872665,0,0.436332,0,0.034907,0.715585,-0.872665,0,0.436332,509.511,520.333,518.646,474.202,488.192,618.015
0,-0.087266,0.087266,0.001523,0.785398,0.087266,0.001523,0.785398,0,-0.034907,0.715585,-0.872665,0,0.436332,0,0.034907,0.715585,-0.872665,0,0.436332,511.057,520.826,518.555,477.132,504.127,629.196
0,-0.087266,0.087266,0.001523,0.785398,0.087266,0.001523,0.785398,0,-0.034907,0.715585,-0.872665,0,0.436332,0,0.034907,0.715585,-0.872665,0,0.436332,512.753,521.264,517.973,478.969,500.083,638.695
0,-0.087266,0.087266,0.001523,0.785398,0.087266,0.001523,0.785398,0,-0.034907,0.715585,-0.872665,0,0.436332,0,0.034907,0.715585,-0.872665,0,0.436332,514.347,521.693,517.24,478.251,499.195,638.081
0,-0.087266,0.087266,0.001523,0.785398,0.087266,0.001523,0.785398,0,-0.034907,0.715585,-0.872665,0,0.436332,0,0.034907,0.715585,-0.872665,0,0.436332,516.243,519.502,516.121,487.164,493.48,642.912
0,-0.087266,0.087266,0.001523,0.785398,0.087266,0.001523,0.785398,0,-0.034907,0.715585,-0.872665,0,0.436332,0,0.034907,0.715585,-0.872665,0,0.436332,518.142,517.571,514.847,478.559,492.992,639.349
0,-0.087266,0.087266,0.001523,0.785398,0.087266,0.001523,0.785398,0,-0.034907,0.715585,-0.872665,0,0.436332,0,0.034907,0.715585,-0.872665,0,0.436332,519.332,517.089,514.84,472.615,492.578,638.234
0,-0.087266,0.087266,0.001523,0.785398,0.087266,0.001523,0.785398,0,-0.034907,0.715585,-0.872665,0,0.436332,0,0.034907,0.715585,-0.872665,0,0.436332,520.428,515.522,515.143,478.476,491.367,638.716
0,-0.087266,0.087266,0.001523,0.785398,0.087266,0.001523,0.785398,0,-0.034907,0.715585,-0.872665,0,0.436332,0,0.034907,0.715585,-0.872665,0,0.436332,521.185,513.669,515.591,467.966,496.83,646.354
0,-0.087266,0.087266,0.001523,0.785398,0.087266,0.001523,0.785398,0,-0.034907,0.715585,-0.872665,0,0.436332,0,0.034907,0.715585,-0.872665,0,0.436332,521.943,511.777,515.754,471.235,497.578,637.445
0,-0.087266,0.087266,0.001523,0.785398,0.087266,0.001523,0.785398,0,-0.034907,0.715585,-0.872665,0,0.436332,0,0.034907,0.715585,-0.872665,0,0.436332,522.718,509.677,515.883,471.541,497.886,638.971
0,-0.087266,0.087266,0.001523,0.785398,0.087266,0.001523,0.785398,0,-0.034907,0.715585,-0.872665,0,0.436332,0,0.034907,0.715585,-0.872665,0,0.436332,523.714,508.321,516.018,479.377,496.703,652.189
0,-0.087266,0.087266,0.001523,0.785398,0.087266,0.001523,0.785398,0,-0.034907,0.715585,-0.872665,0,0.436332,0,0.034907,0.715585,-0.872665,0,0.436332,524.628,508.49,516.201,475.892,498.884,634.44
0,-0.087266,0.087266,0.001523,0.785398,0.087266,0.001523,0.785398,0,-0.034907,0.715585,-0.872665,0,0.436332,0,0.034907,0.715585,-0.872665,0,0.436332,525.448,508.662,516.368,475.503,501.015,636.261
0,-0.087266,0.087266,0.001523,0.785398,0.087266,0.001523,0.785398,0,-0.034907,0.715585,-0.872665,0,0.436332,0,0.034907,0.715585,-0.872665,0,0.436332,526.174,508.976,516.532,478.971,503.871,637.217
0,-0.087266,0.087266,0.001523,0.785398,0.087266,0.001523,0.785398,0,-0.034907,0.715585,-0.872665,0,0.436332,0,0.034907,0.715585,-0.872665,0,0.436332,523.909,509.462,516.821,469.178,554.166,668.048
0,-0.087266,0.087266,0.001523,0.785398,0.087266,0.001523,0.785398,0,-0.034907,0.715585,-0.872665,0,0.436332,0,0.034907,0.715585,-0.872665,0,0.436332,522.05,509.033,516.159,482.417,553.387,662.446
0,-0.087266,0.087266,0.001523,0.785398,0.087266,0.001523,0.785398,0,-0.034907,0.715585,-0.872665,0,0.436332,0,0.034907,0.715585,-0.872665,0,0.436332,520.725,509.524,515.543,477.405,539.662,637.964
0,-0.087266,0.087266,0.001523,0.785398,0.087266,0.001523,0.785398,0,-0.034907,0.715585,-0.872665,0,0.436332,0,0.034907,0.715585,-0.872665,0,0.436332,519.475,509.757,514.916,482.834,548.674,626.333
0,-0.087266,0.087266,0.001523,0.785398,0.087266,0.001523,0.785398,0,-0.034907,0.715585,-0.872665,0,0.436332,0,0.034907,0.715585,-0.872665,0,0.436332,518.296,509.998,514.24,481.56,547.408,629.578
0,-0.087266,0.087266,0.001523,0.785398,0.087266,0.001523,0.785398,0,-0.034907,0.715585,-0.872665,0,0.436332,0,0.034907,0.715585,-0.872665,0,0.436332,517.106,510.234,513.818,482.163,548.433,629.308
0,-0.087266,0.087266,0.001523,0.785398,0.087266,0.001523,0.785398,0,-0.034907,0.715585,-0.872665,0,0.436332,0,0.034907,0.715585,-0.872665,0,0.436332,515.932,510.472,513.409,482.417,547.811,629.37
0,-0.087266,0.087266,0.001523,0.785398,0.087266,0.001523,0.785398,0,-0.034907,0.715585,-0.872665,0,0.436332,0,0.034907,0.715585,-0.872665,0,0.436332,515.127,510.756,513.129,478.211,538.958,631.793
0,-0.087266,0.087266,0.001523,0.785398,0.087266,0.001523,0.785398,0,-0.034907,0.715585,-0.872665,0,0.436332,0,0.034907,0.715585,-0.872665,0,0.436332,514.084,510.885,512.786,481.779,545.209,630.325
0,-0.087266,0.087266,0.001523,0.785398,0.087266,0.001523,0.785398,0,-0.034907,0.715585,-0.872665,0,0.436332,0,0.034907,0.715585,-0.872665,0,0.436332,513.048,511.028,512.454,481.815,544.385,629.819
0,-0.087266,0.087266,0.001523,0.785398,0.087266,0.001523,0.785398,0,-0.034907,0.715585,-0.872665,0,0.436332,0,0.034907,0.715585,-0.872665,0,0.436332,514.029,511.082,512.111,482.202,538.173,636.214
0,-0.087266,0.087266,0.001523,0.785398,0.087266,0.001523,0.785398,0,-0.034907,0.715585,-0.872665,0,0.436332,0,0.034907,0.715585,-0.872665,0,0.436332,514.959,511.15,511.786,482.164,537.495,636.678
0,-0.087266,0.087266,0.001523,0.785398,0.087266,0.001523,0.785398,0,-0.034907,0.715585,-0.872665,0,0.436332,0,0.034907,0.715585,-0.872665,0,0.436332,514.038,511.292,513.005,478.267,537.901,630.994
0,-0.087266,0.087266,0.001523,0.785398,0.087266,0.001523,0.785398,0,-0.034907,0.715585,-0.872665,0,0.436332,0,0.034907,0.715585,-0.872665,0,0.436332,513.009,511.469,512.654,481.036,535.986,630.647
0,-0.087266,0.087266,0.001523,0.785398,0.087266,0.001523,0.785398,0,-0.034907,0.715585,-0.872665,0,0.436332,0,0.034907,0.715585,-0.872665,0,0.436332,511.953,511.778,512.262,474.62,531.046,635.305
0,-0.087266,0.087266,0.001523,0.785398,0.087266,0.001523,0.785398,0,-0.034907,0.715585,-0.872665,0,0.436332,0,0.034907,0.715585,-0.872665,0,0.436332,509.952,512.031,511.967,479.123,517.323,629.651
0,-0.087266,0.087266,0.001523,0.785398,0.087266,0.001523,0.785398,0,-0.034907,0.715585,-0.872665,0,0.436332,0,0.034907,0.715585,-0.872665,0,0.436332,508.963,512.22,511.634,479.584,530.129,631.049
0,-0.087266,0.087266,0.001523,0.785398,0.087266,0.001523,0.785398,0,-0.034907,0.715585,-0.872665,0,0.436332,0,0.034907,0.715585,-0.872665,0,0.436332,507.982,512.383,511.336,479.809,528.576,631.353
0,-0.087266,0.087266,0.001523,0.785398,0.087266,0.001523,0.785398,0,-0.034907,0.715585,-0.872665,0,0.436332,0,0.034907,0.715585,-0.872665,0,0.436332,508.337,512.873,511.216,471.889,537.418,644.499
0,-0.087266,0.087266,0.001523,0.785398,0.087266,0.001523,0.785398,0,-0.034907,0.715585,-0.872665,0,0.436332,0,0.034907,0.715585,-0.872665,0,0.436332,507.95,513.181,510.978,481.667,527.308,631.003
0,-0.087266,0.087266,0.001523,0.785398,0.087266,0.001523,0.785398,0,-0.034907,0.715585,-0.872665,0,0.436332,0,0.034907,0.715585,-0.872665,0,0.436332,507.645,513.254,510.79,482.122,524.83,632.665
0,-0.087266,0.087266,0.001523,0.785398,0.087266,0.001523,0.785398,0,-0.034907,0.715585,-0.872665,0,0.436332,0,0.034907,0.715585,-0.872665,0,0.436332,507.329,513.321,510.606,481.531,524.567,633.404
0,-0.087266,0.087266,0.001523,0.785398,0.087266,0.001523,0.785398,0,-0.034907,0.715585,-0.872665,0,0.436332,0,0.034907,0.715585,-0.872665,0,0.436332,507.095,512.652,510.478,485.566,518.02,639.23
0,-0.087266,0.087266,0.001523,0.785398,0.087266,0.001523,0.785398,0,-0.034907,0.715585,-0.872665,0,0.436332,0,0.034907,0.715585,-0.872665,0,0.436332,506.861,512.225,510.343,480.621,517.888,634.439
0,-0.087266,0.087266,0.001523,0.785398,0.087266,0.001523,0.785398,0,-0.034907,0.715585,-0.872665,0,0.436332,0,0.034907,0.715585,-0.872665,0,0.436332,507.296,512.753,510.6,471.384,511.9,645.11
0,-0.087266,0.087266,0.001523,0.785398,0.087266,0.001523,0.785398,0,-0.034907,0.715585,-0.872665,0,0.436332,0,0.034907,0.715585,-0.872665,0,0.436332,507.503,513.24,510.713,474.707,511.19,632.773
0,-0.087266,0.087266,0.001523,0.785398,0.087266,0.001523,0.785398,0,-0.034907,0.715585,-0.872665,0,0.436332,0,0.034907,0.715585,-0.872665,0,0.436332,508.261,513.198,510.956,480.642,502.684,626.509
0,-0.087266,0.087266,0.001523,0.785398,0.087266,0.001523,0.785398,0,-0.034907,0.715585,-0.872665,0,0.436332,0,0.034907,0.715585,-0.872665,0,0.436332,508.449,512.622,510.942,464.021,511.312,644.057
0,-0.087266,0.087266,0.001523,0.785398,0.087266,0.001523,0.785398,0,-0.034907,0.715585,-0.872665,0,0.436332,0,0.034907,0.715585,-0.872665,0,0.436332,508.82,512.496,511.021,473.908,506.888,632.606
0,-0.087266,0.087266,0.001523,0.785398,0.087266,0.001523,0.785398,0,-0.034907,0.715585,-0.872665,0,0.436332,0,0.034907,0.715585,-0.872665,0,0.436332,509.018,512.375,511.123,473.338,507.892,634.969
0,-0.087266,0.087266,0.001523,0.785398,0.087266,0.001523,0.785398,0,-0.034907,0.715585,-0.872665,0,0.436332,0,0.034907,0.715585,-0.872665,0,0.436332,508.448,512.27,510.958,473.827,523.405,634.264
0,-0.087266,0.087266,0.001523,0.785398,0.087266,0.001523,0.785398,0,-0.034907,0.715585,-0.872665,0,0.436332,0,0.034907,0.715585,-0.872665,0,0.436332,508.48,512.164,510.972,474.101,506.268,633.725
0,-0.087266,0.087266,0.001523,0.785398,0.087266,0.001523,0.785398,0,-0.034907,0.715585,-0.872665,0,0.436332,0,0.034907,0.715585,-0.872665,0,0.436332,508.759,512.073,511.054,474.114,505.831,634.557
0,-0.087266,0.087266,0.001523,0.785398,0.087266,0.001523,0.785398,0,-0.034907,0.715585,-0.872665,0,0.436332,0,0.034907,0.715585,-0.872665,0,0.436332,509.049,511.996,511.139,474.36,505.309,634.745
0,-0.087266,0.087266,0.001523,0.785398,0.087266,0.001523,0.785398,0,-0.034907,0.715585,-0.872665,0,0.436332,0,0.034907,0.715585,-0.872665,0,0.436332,509.347,511.931,511.227,474.643,504.843,634.854
0,-0.087266,0.087266,0.001523,0.785398,0.087266,0.001523,0.785398,0,-0.034907,0.715585,-0.872665,0,0.436332,0,0.034907,0.715585,-0.872665,0,0.436332,509.68,511.881,511.323,474.888,504.702,635.111
0,-0.087266,0.087266,0.001523,0.785398,0.087266,0.001523,0.785398,0,-0.034907,0.715585,-0.872665,0,0.436332,0,0.034907,0.715585,-0.872665,0,0.436332,510.018,511.844,511.421,475.149,504.633,635.255
0,-0.087266,0.087266,0.001523,0.785398,0.087266,0.001523,0.785398,0,-0.034907,0.715585,-0.872665,0,0.436332,0,0.034907,0.715585,-0.872665,0,0.436332,510.335,511.817,511.529,475.414,504.662,635.289
0,-0.087266,0.087266,0.001523,0.785398,0.087266,0.001523,0.785398,0,-0.034907,0.715585,-0.872665,0,0.436332,0,0.034907,0.715585,-0.872665,0,0.436332,510.638,511.803,511.6,475.713,504.549,635.298
0,-0.087266,0.087266,0.001523,0.785398,0.087266,0.001523,0.785398,0,-0.034907,0.715585,-0.872665,0,0.436332,0,0.034907,0.715585,-0.872665,0,0.436332,510.911,511.796,511.68,475.951,504.57,635.261
0,-0.087266,0.087266,0.001523,0.785398,0.087266,0.001523,0.785398,0,-0.034907,0.715585,-0.872665,0,0.436332,0,0.034907,0.715585,-0.872665,0,0.436332,511.16,511.798,511.751,476.172,504.576,635.218
0,-0.087266,0.087266,0.001523,0.785398,0.087266,0.001523,0.785398,0,-0.034907,0.715585,-0.872665,0,0.436332,0,0.034907,0.715585,-0.872665,0,0.436332,511.599,511.804,511.965,476.676,505.048,634.151
0,-0.087266,0.087266,0.001523,0.785398,0.087266,0.001523,0.785398,0,-0.034907,0.715585,-0.872665,0,0.436332,0,0.034907,0.715585,-0.872665,0,0.436332,511.699,511.822,511.911,476.206,504.224,636.389
0,-0.087266,0.087266,0.001523,0.785398,0.087266,0.001523,0.785398,0,-0.034907,0.715585,-0.872665,0,0.436332,0,0.034907,0.715585,-0.872665,0,0.436332,511.845,511.834,511.952,476.481,504.455,635.212
0,-0.087266,0.087266,0.001523,0.785398,0.087266,0.001523,0.785398,0,-0.034907,0.715585,-0.872665,0,0.436332,0,0.034907,0.715585,-0.872665,0,0.436332,512.257,511.864,512.157,477.276,504.715,634.079
0,-0.087266,0.087266,0.001523,0.785398,0.087266,0.001523,0.785398,0,-0.034907,0.715585,-0.872665,0,0.436332,0,0.034907,0.715585,-0.872665,0,0.436332,512.283,511.887,512.083,476.503,504.328,636.043
0,-0.087266,0.087266,0.001523,0.785398,0.087266,0.001523,0.785398,0,-0.034907,0.715585,-0.872665,0,0.436332,0,0.034907,0.715585,-0.872665,0,0.436332,512.487,511.905,512.154,476.541,505.78,635.557
0,-0.087266,0.087266,0.001523,0.785398,0.087266,0.001523,0.785398,0,-0.034907,0.715585,-0.872665,0,0.436332,0,0.034907,0.715585,-0.872665,0,0.436332,512.684,511.925,512.19,476.668,506.152,635.367
0,-0.087266,0.087266,0.001523,0.785398,0.087266,0.001523,0.785398,0,-0.034907,0.715585,-0.872665,0,0.436332,0,0.034907,0.715585,-0.872665,0,0.436332,512.864,511.945,512.239,476.664,506.646,635.305
0,-0.087266,0.087266,0.001523,0.785398,0.087266,0.001523,0.785398,0,-0.034907,0.715585,-0.872665,0,0.436332,0,0.034907,0.715585,-0.872665,0,0.436332,513.028,511.963,512.284,476.658,507.136,635.266
0,-0.087266,0.087266,0.001523,0.785398,0.087266,0.001523,0.785398,0,-0.034907,0.715585,-0.872665,0,0.436332,0,0.034907,0.715585,-0.872665,0,0.436332,513.174,511.979,512.345,476.62,507.7,635.232
0,-0.087266,0.087266,0.001523,0.785398,0.087266,0.001523,0.785398,0,-0.034907,0.715585,-0.872665,0,0.436332,0,0.034907,0.715585,-0.872665,0,0.436332,513.305,511.994,512.372,476.621,508.176,635.184
0,-0.087266,0.087266,0.001523,0.785398,0.087266,0.001523,0.785398,0,-0.034907,0.715585,-0.872665,0,0.436332,0,0.034907,0.715585,-0.872665,0,0.436332,513.418,512.007,512.407,476.578,508.758,635.144
0,-0.087266,0.087266,0.001523,0.785398,0.087266,0.001523,0.785398,0,-0.034907,0.715585,-0.872665,0,0.436332,0,0.034907,0.715585,-0.872665,0,0.436332,513.514,512.018,512.441,476.542,509.33,635.103
0,-0.087266,0.087266,0.001523,0.785398,0.087266,0.001523,0.785398,0,-0.034907,0.715585,-0.872665,0,0.436332,0,0.034907,0.715585,-0.872665,0,0.436332,513.593,512.027,512.463,476.512,509.888,635.057
0,-0.087266,0.087266,0.001523,0.785398,0.087266,0.001523,0.785398,0,-0.034907,0.715585,-0.872665,0,0.436332,0,0.034907,0.715585,-0.872665,0,0.436332,513.656,512.034,512.482,476.475,510.465,635.016
0,-0.087266,0.087266,0.001523,0.785398,0.087266,0.001523,0.785398,0,-0.034907,0.715585,-0.872665,0,0.436332,0,0.034907,0.715585,-0.872665,0,0.436332,513.702,512.04,512.493,476.444,511.029,634.975
0,-0.087266,0.087266,0.001523,0.785398,0.087266,0.001523,0.785398,0,-0.034907,0.715585,-0.872665,0,0.436332,0,0.034907,0.715585,-0.872665,0,0.436332,513.734,512.044,512.483,476.428,511.553,634.931
0,-0.087266,0.087266,0.001523,0.785398,0.087266,0.001523,0.785398,0,-0.034907,0.715585,-0.872665,0,0.436332,0,0.034907,0.715585,-0.872665,0,0.436332,513.753,512.05,512.447,476.422,512.041,634.893
0,-0.087266,0.087266,0.001523,0.785398,0.087266,0.001523,0.785398,0,-0.034907,0.715585,-0.872665,0,0.436332,0,0.034907,0.715585,-0.872665,0,0.436332,513.76,512.055,512.388,476.424,512.511,634.861
0,-0.087266,0.087266,0.001523,0.785398,0.087266,0.001523,0.785398,0,-0.034907,0.715585,-0.872665,0,0.436332,0,0.034907,0.715585,-0.872665,0,0.436332,513.742,512.049,512.504,476.251,513.354,634.877
0,-0.087266,0.087266,0.001523,0.785398,0.087266,0.001523,0.785398,0,-0.034907,0.715585,-0.872665,0,0.436332,0,0.034907,0.715585,-0.872665,0,0.436332,513.717,512.047,512.499,476.313,513.674,634.816
0,-0.087266,0.087266,0.001523,0.785398,0.087266,0.001523,0.785398,0,-0.034907,0.715585,-0.872665,0,0.436332,0,0.034907,0.715585,-0.872665,0,0.436332,513.68,512.044,512.488,476.295,514.134,634.788
0,-0.087266,0.087266,0.001523,0.785398,0.087266,0.001523,0.785398,0,-0.034907,0.715585,-0.872665,0,0.436332,0,0.034907,0.715585,-0.872665,0,0.436332,513.632,512.041,512.474,476.282,514.579,634.767
0,-0.087266,0.087266,0.001523,0.785398,0.087266,0.001523,0.785398,0,-0.034907,0.715585,-0.872665,0,0.436332,0,0.034907,0.715585,-0.872665,0,0.436332,513.574,512.038,512.457,476.273,514.993,634.749
0,-0.087266,0.087266,0.001523,0.785398,0.087266,0.001523,0.785398,0,-0.034907,0.715585,-0.872665,0,0.436332,0,0.034907,0.715585,-0.872665,0,0.436332,513.507,512.035,512.436,476.268,515.377,634.733
0,-0.087266,0.087266,0.001523,0.785398,0.087266,0.001523,0.785398,0,-0.034907,0.715585,-0.872665,0,0.436332,0,0.034907,0.715585,-0.872665,0,0.436332,513.261,512.113,512.366,477.741,519.559,636.695
0,-0.087266,0.087266,0.001523,0.785398,0.087266,0.001523,0.785398,0,-0.034907,0.715585,-0.872665,0,0.436332,0,0.034907,0.715585,-0.872665,0,0.436332,513.015,512.109,512.291,476.118,519.556,634.423
0,-0.087266,0.087266,0.001523,0.785398,0.087266,0.001523,0.785398,0,-0.034907,0.715585,-0.872665,0,0.436332,0,0.034907,0.715585,-0.872665,0,0.436332,512.777,512.097,512.221,476.211,519.389,634.14
0,-0.087266,0.087266,0.001523,0.785398,0.087266,0.001523,0.785398,0,-0.034907,0.715585,-0.872665,0,0.436332,0,0.034907,0.715585,-0.872665,0,0.436332,512.554,512.083,512.157,476.163,519.163,634.159
0,-0.087266,0.087266,0.001523,0.785398,0.087266,0.001523,0.785398,0,-0.034907,0.715585,-0.872665,0,0.436332,0,0.034907,0.715585,-0.872665,0,0.436332,512.357,512.068,512.101,476.132,518.695,634.187
0,-0.087266,0.087266,0.001523,0.785398,0.087266,0.001523,0.785398,0,-0.034907,0.715585,-0.872665,0,0.436332,0,0.034907,0.715585,-0.872665,0,0.436332,512.191,512.054,512.052,476.11,518.121,634.251
0,-0.087266,0.087266,0.001523,0.785398,0.087266,0.001523,0.785398,0,-0.034907,0.715585,-0.872665,0,0.436332,0,0.034907,0.715585,-0.872665,0,0.436332,512.056,512.04,512.014,476.095,517.538,634.336
0,-0.087266,0.087266,0.001523,0.785398,0.087266,0.001523,0.785398,0,-0.034907,0.715585,-0.872665,0,0.436332,0,0.034907,0.715585,-0.872665,0,0.436332,511.951,512.028,511.984,476.094,516.954,634.42
0,-0.087266,0.087266,0.001523,0.785398,0.087266,0.001523,0.785398,0,-0.034907,0.715585,-0.872665,0,0.436332,0,0.034907,0.715585,-0.872665,0,0.436332,511.872,512.017,511.961,476.104,516.414,634.502
0,-0.087266,0.087266,0.001523,0.785398,0.087266,0.001523,0.785398,0,-0.034907,0.715585,-0.872665,0,0.436332,0,0.034907,0.715585,-0.872665,0,0.436332,511.807,512.008,511.944,476.121,515.97,634.565
0,-0.087266,0.087266,0.001523,0.785398,0.087266,0.001523,0.785398,0,-0.034907,0.715585,-0.872665,0,0.436332,0,0.034907,0.715585,-0.872665,0,0.436332,511.755,512,511.93,476.143,515.607,634.627
0,-0.087266,0.087266,0.001523,0.785398,0.087266,0.001523,0.785398,0,-0.034907,0.715585,-0.872665,0,0.436332,0,0.034907,0.715585,-0.872665,0,0.436332,511.714,511.994,511.92,476.161,515.297,634.693
0,-0.087266,0.087266,0.001523,0.785398,0.087266,0.001523,0.785398,0,-0.034907,0.715585,-0.872665,0,0.436332,0,0.034907,0.715585,-0.872665,0,0.436332,511.683,511.989,511.913,476.18,515.007,634.738
0,-0.087266,0.087266,0.001523,0.785398,0.087266,0.001523,0.785398,0,-0.034907,0.715585,-0.872665,0,0.436332,0,0.034907,0.715585,-0.872665,0,0.436332,511.661,511.986,511.909,476.197,514.746,634.778
0,-0.087266,0.087266,0.001523,0.785398,0.087266,0.001523,0.785398,0,-0.034907,0.715585,-0.872665,0,0.436332,0,0.034907,0.715585,-0.872665,0,0.436332,511.648,511.983,511.906,476.215,514.498,634.813
0,-0.087266,0.087266,0.001523,0.785398,0.087266,0.001523,0.785398,0,-0.034907,0.715585,-0.872665,0,0.436332,0,0.034907,0.715585,-0.872665,0,0.436332,511.513,511.975,511.861,476.086,516.388,634.655
0,-0.087266,0.087266,0.001523,0.785398,0.087266,0.001523,0.785398,0,-0.034907,0.715585,-0.872665,0,0.436332,0,0.034907,0.715585,-0.872665,0,0.436332,511.527,511.964,511.866,475.979,513.756,634.914
0,-0.087266,0.087266,0.001523,0.785398,0.087266,0.001523,0.785398,0,-0.034907,0.715585,-0.872665,0,0.436332,0,0.034907,0.715585,-0.872665,0,0.436332,511.547,511.954,511.871,475.995,513.496,634.94
0,-0.087266,0.087266,0.001523,0.785398,0.087266,0.001523,0.785398,0,-0.034907,0.715585,-0.872665,0,0.436332,0,0.034907,0.715585,-0.872665,0,0.436332,511.569,511.946,511.878,476.059,513.392,634.992
0,-0.087266,0.087266,0.001523,0.785398,0.087266,0.001523,0.785398,0,-0.034907,0.715585,-0.872665,0,0.436332,0,0.034907,0.715585,-0.872665,0,0.436332,511.593,511.942,511.884,476.132,513.293,634.998
0,-0.087266,0.087266,0.001523,0.785398,0.087266,0.001523,0.785398,0,-0.034907,0.715585,-0.872665,0,0.436332,0,0.034907,0.715585,-0.872665,0,0.436332,511.619,511.94,511.893,476.195,513.21,635
0,-0.087266,0.087266,0.001523,0.785398,0.087266,0.001523,0.785398,0,-0.034907,0.715585,-0.872665,0,0.436332,0,0.034907,0.715585,-0.872665,0,0.436332,511.646,511.94,511.901,476.252,513.132,635.001
0,-0.087266,0.087266,0.001523,0.785398,0.087266,0.001523,0.785398,0,-0.034907,0.715585,-0.872665,0,0.436332,0,0.034907,0.715585,-0.872665,0,0.436332,511.675,511.942,511.908,476.3,513.068,635.003
0,-0.087266,0.087266,0.001523,0.785398,0.087266,0.001523,0.785398,0,-0.034907,0.715585,-0.872665,0,0.436332,0,0.034907,0.715585,-0.872665,0,0.436332,511.704,511.946,511.917,476.336,513.024,635.006
0,-0.087266,0.087266,0.001523,0.785398,0.087266,0.001523,0.785398,0,-0.034907,0.715585,-0.872665,0,0.436332,0,0.034907,0.715585,-0.872665,0,0.436332,511.735,511.95,511.925,476.367,512.971,635.004
0,-0.087266,0.087266,0.001523,0.785398,0.087266,0.001523,0.785398,0,-0.034907,0.715585,-0.872665,0,0.436332,0,0.034907,0.715585,-0.872665,0,0.436332,511.765,511.956,511.935,476.388,512.936,635.005
0,-0.087266,0.087266,0.001523,0.785398,0.087266,0.001523,0.785398,0,-0.034907,0.715585,-0.872665,0,0.436332,0,0.034907,0.715585,-0.872665,0,0.436332,511.796,511.962,511.943,476.404,512.905,635.005
0,-0.087266,0.087266,0.001523,0.785398,0.087266,0.001523,0.785398,0,-0.034907,0.715585,-0.872665,0,0.436332,0,0.034907,0.715585,-0.872665,0,0.436332,511.827,511.968,511.953,476.412,512.889,635.004
0,-0.087266,0.087266,0.001523,0.785398,0.087266,0.001523,0.785398,0,-0.034907,0.715585,-0.872665,0,0.436332,0,0.034907,0.715585,-0.872665,0,0.436332,511.858,511.974,511.959,476.418,512.869,635.001
0,-0.087266,0.087266,0.001523,0.785398,0.087266,0.001523,0.785398,0,-0.034907,0.715585,-0.872665,0,0.436332,0,0.034907,0.715585,-0.872665,0,0.436332,511.888,511.98,511.967,476.415,512.872,634.998
0,-0.087266,0.087266,0.001523,0.785398,0.087266,0.001523,0.785398,0,-0.034907,0.715585,-0.872665,0,0.436332,0,0.034907,0.715585,-0.872665,0,0.436332,511.917,511.985,511.976,476.409,512.884,634.994
0,-0.087266,0.087266,0.001523,0.785398,0.087266,0.001523,0.785398,0,-0.034907,0.715585,-0.872665,0,0.436332,0,0.034907,0.715585,-0.872665,0,0.436332,511.946,511.99,511.984,476.402,512.894,634.989
0,-0.087266,0.087266,0.001523,0.785398,0.087266,0.001523,0.785398,0,-0.034907,0.715585,-0.872665,0,0.436332,0,0.034907,0.715585,-0.872665,0,0.436332,511.973,511.995,511.991,476.392,512.916,634.984
0,-0.087266,0.087266,0.001523,0.785398,0.087266,0.001523,0.785398,0,-0.034907,0.715585,-0.872665,0,0.436332,0,0.034907,0.715585,-0.872665,0,0.436332,511.999,511.999,512,476.38,512.947,634.98
0,-0.087266,0.087266,0.001523,0.785398,0.087266,0.001523,0.785398,0,-0.034907,0.715585,-0.872665,0,0.436332,0,0.034907,0.715585,-0.872665,0,0.436332,512.024,512.002,512.007,476.369,512.981,634.973
0,-0.087266,0.087266,0.001523,0.785398,0.087266,0.001523,0.785398,0,-0.034907,0.715585,-0.872665,0,0.436332,0,0.034907,0.715585,-0.872665,0,0.436332,512.047,512.005,512.013,476.356,513.024,634.966
0,-0.087266,0.087266,0.001523,0.785398,0.087266,0.001523,0.785398,0,-0.034907,0.715585,-0.872665,0,0.436332,0,0.034907,0.715585,-0.872665,0,0.436332,512.068,512.007,512.019,476.344,513.07,634.959
0,-0.087266,0.087266,0.001523,0.785398,0.087266,0.001523,0.785398,0,-0.034907,0.715585,-0.872665,0,0.436332,0,0.034907,0.715585,-0.872665,0,0.436332,512.088,512.008,512.025,476.332,513.121,634.953
0,-0.087266,0.087266,0.001523,0.785398,0.087266,0.001523,0.785398,0,-0.034907,0.715585,-0.872665,0,0.436332,0,0.034907,0.715585,-0.872665,0,0.436332,512.106,512.009,512.03,476.321,513.176,634.948
0,-0.087266,0.087266,0.001523,0.785398,0.087266,0.001523,0.785398,0,-0.034907,0.715585,-0.872665,0,0.436332,0,0.034907,0.715585,-0.872665,0,0.436332,512.122,512.01,512.035,476.311,513.23,634.943
0,-0.087266,0.087266,0.001523,0.785398,0.087266,0.001523,0.785398,0,-0.034907,0.715585,-0.872665,0,0.436332,0,0.034907,0.715585,-0.872665,0,0.436332,512.136,512.01,512.039,476.302,513.29,634.937
0,-0.087266,0.087266,0.001523,0.785398,0.087266,0.001523,0.785398,0,-0.034907,0.715585,-0.872665,0,0.436332,0,0.034907,0.715585,-0.872665,0,0.436332,512.148,512.01,512.042,476.296,513.348,634.931
0,-0.087266,0.087266,0.001523,0.785398,0.087266,0.001523,0.785398,0,-0.034907,0.715585,-0.872665,0,0.436332,0,0.034907,0.715585,-0.872665,0,0.436332,512.158,512.01,512.046,476.29,513.411,634.926
0,-0.087266,0.087266,0.001523,0.785398,0.087266,0.001523,0.785398,0,-0.034907,0.715585,-0.872665,0,0.436332,0,0.034907,0.715585,-0.872665,0,0.436332,512.167,512.009,512.048,476.286,513.469,634.921
0,-0.087266,0.087266,0.001523,0.785398,0.087266,0.001523,0.785398,0,-0.034907,0.715585,-0.872665,0,0.436332,0,0.034907,0.715585,-0.872665,0,0.436332,512.173,512.008,512.05,476.283,513.534,634.916
0,-0.087266,0.087266,0.001523,0.785398,0.087266,0.001523,0.785398,0,-0.034907,0.715585,-0.872665,0,0.436332,0,0.034907,0.715585,-0.872665,0,0.436332,512.178,512.007,512.052,476.28,513.595,634.913
0,-0.087266,0.087266,0.001523,0.785398,0.087266,0.001523,0.785398,0,-0.034907,0.715585,-0.872665,0,0.436332,0,0.034907,0.715585,-0.872665,0,0.436332,512.181,512.007,512.052,476.28,513.653,634.908
0,-0.087266,0.087266,0.001523,0.785398,0.087266,0.001523,0.785398,0,-0.034907,0.715585,-0.872665,0,0.436332,0,0.034907,0.715585,-0.872665,0,0.436332,512.175,512.011,512.05,476.374,513.901,635.017
0,-0.087266,0.087266,0.001523,0.785398,0.087266,0.001523,0.785398,0,-0.034907,0.715585,-0.872665,0,0.436332,0,0.034907,0.715585,-0.872665,0,0.436332,512.16,512.018,512.047,476.438,514.094,634.993
0,-0.087266,0.087266,0.001523,0.785398,0.087266,0.001523,0.785398,0,-0.034907,0.715585,-0.872665,0,0.436332,0,0.034907,0.715585,-0.872665,0,0.436332,512.145,512.024,512.039,476.431,514.131,634.899
0,-0.087266,0.087266,0.001523,0.785398,0.087266,0.001523,0.785398,0,-0.034907,0.715585,-0.872665,0,0.436332,0,0.034907,0.715585,-0.872665,0,0.436332,512.128,512.028,512.037,476.394,514.179,634.877
0,-0.087266,0.087266,0.001523,0.785398,0.087266,0.001523,0.785398,0,-0.034907,0.715585,-0.872665,0,0.436332,0,0.034907,0.715585,-0.872665,0,0.436332,512.112,512.031,512.03,476.368,514.185,634.87
0,-0.087266,0.087266,0.001523,0.785398,0.087266,0.001523,0.785398,0,-0.034907,0.715585,-0.872665,0,0.436332,0,0.034907,0.715585,-0.872665,0,0.436332,512.095,512.033,512.027,476.324,514.213,634.86
0,-0.087266,0.087266,0.001523,0.785398,0.087266,0.001523,0.785398,0,-0.034907,0.715585,-0.872665,0,0.436332,0,0.034907,0.715585,-0.872665,0,0.436332,512.078,512.033,512.022,476.297,514.205,634.856
0,-0.087266,0.087266,0.001523,0.785398,0.087266,0.001523,0.785398,0,-0.034907,0.715585,-0.872665,0,0.436332,0,0.034907,0.715585,-0.872665,0,0.436332,512.063,512.032,512.018,476.265,514.201,634.852
0,-0.087266,0.087266,0.001523,0.785398,0.087266,0.001523,0.785398,0,-0.034907,0.715585,-0.872665,0,0.436332,0,0.034907,0.715585,-0.872665,0,0.436332,512.047,512.029,512.014,476.238,514.188,634.848
0,-0.087266,0.087266,0.001523,0.785398,0.087266,0.001523,0.785398,0,-0.034907,0.715585,-0.872665,0,0.436332,0,0.034907,0.715585,-0.872665,0,0.436332,512.034,512.026,512.006,476.219,514.161,634.846
0,-0.087266,0.087266,0.001523,0.785398,0.087266,0.001523,0.785398,0,-0.034907,0.715585,-0.872665,0,0.436332,0,0.034907,0.715585,-0.872665,0,0.436332,512.021,512.023,512.003,476.198,514.151,634.845
0,-0.087266,0.087266,0.001523,0.785398,0.087266,0.001523,0.785398,0,-0.034907,0.715585,-0.872665,0,0.436332,0,0.034907,0.715585,-0.872665,0,0.436332,512.008,512.018,512.002,476.185,514.128,634.846
0,-0.087266,0.087266,0.001523,0.785398,0.087266,0.001523,0.785398,0,-0.034907,0.715585,-0.872665,0,0.436332,0,0.034907,0.715585,-0.872665,0,0.436332,511.998,512.014,512,476.177,514.092,634.848
0,-0.087266,0.087266,0.001523,0.785398,0.087266,0.001523,0.785398,0,-0.034907,0.715585,-0.872665,0,0.436332,0,0.034907,0.715585,-0.872665,0,0.436332,511.989,512.009,511.997,476.176,514.057,634.851
0,-0.087266,0.087266,0.001523,0.785398,0.087266,0.001523,0.785398,0,-0.034907,0.715585,-0.872665,0,0.436332,0,0.034907,0.715585,-0.872665,0,0.436332,511.981,512.005,511.996,476.172,514.028,634.855
0,-0.087266,0.087266,0.001523,0.785398,0.087266,0.001523,0.785398,0,-0.034907,0.715585,-0.872665,0,0.436332,0,0.034907,0.715585,-0.872665,0,0.436332,511.974,512,511.993,476.177,513.991,634.86
0,-0.087266,0.087266,0.001523,0.785398,0.087266,0.001523,0.785398,0,-0.034907,0.715585,-0.872665,0,0.436332,0,0.034907,0.715585,-0.872665,0,0.436332,511.969,511.996,511.991,476.185,513.963,634.864
0,-0.087266,0.087266,0.001523,0.785398,0.087266,0.001523,0.785398,0,-0.034907,0.715585,-0.872665,0,0.436332,0,0.034907,0.715585,-0.872665,0,0.436332,511.965,511.993,511.991,476.193,513.931,634.869
0,-0.087266,0.087266,0.001523,0.785398,0.087266,0.001523,0.785398,0,-0.034907,0.715585,-0.872665,0,0.436332,0,0.034907,0.715585,-0.872665,0,0.436332,511.962,511.99,511.989,476.204,513.9,634.874
0,-0.087266,0.087266,0.001523,0.785398,0.087266,0.001523,0.785398,0,-0.034907,0.715585,-0.872665,0,0.436332,0,0.034907,0.715585,-0.872665,0,0.436332,511.96,511.987,511.989,476.216,513.874,634.881
0,-0.087266,0.087266,0.001523,0.785398,0.087266,0.001523,0.785398,0,-0.034907,0.715585,-0.872665,0,0.436332,0,0.034907,0.715585,-0.872665,0,0.436332,511.959,511.985,511.988,476.228,513.846,634.886
0,-0.087266,0.087266,0.001523,0.785398,0.087266,0.001523,0.785398,0,-0.034907,0.715585,-0.872665,0,0.436332,0,0.034907,0.715585,-0.872665,0,0.436332,511.958,511.984,511.988,476.24,513.824,634.891
0,-0.087266,0.087266,0.001523,0.785398,0.087266,0.001523,0.785398,0,-0.034907,0.715585,-0.872665,0,0.436332,0,0.034907,0.715585,-0.872665,0,0.436332,511.959,511.983,511.989,476.255,513.801,634.897
0,-0.087266,0.087266,0.001523,0.785398,0.087266,0.001523,0.785398,0,-0.034907,0.715585,-0.872665,0,0.436332,0,0.034907,0.715585,-0.872665,0,0.436332,511.96,511.983,511.988,476.266,513.775,634.902
0,-0.087266,0.087266,0.001523,0.785398,0.087266,0.001523,0.785398,0,-0.034907,0.715585,-0.872665,0,0.436332,0,0.034907,0.715585,-0.872665,0,0.436332,511.879,511.99,511.957,476.27,512.184,634.762
0,-0.087266,0.087266,0.001523,0.785398,0.087266,0.001523,0.785398,0,-0.034907,0.715585,-0.872665,0,0.436332,0,0.034907,0.715585,-0.872665,0,0.436332,511.897,511.991,511.965,476.326,513.883,634.952
0,-0.087266,0.087266,0.001523,0.785398,0.087266,0.001523,0.785398,0,-0.034907,0.715585,-0.872665,0,0.436332,0,0.034907,0.715585,-0.872665,0,0.436332,511.918,511.993,511.972,476.328,513.898,634.954
0,-0.087266,0.087266,0.001523,0.785398,0.087266,0.001523,0.785398,0,-0.034907,0.715585,-0.872665,0,0.436332,0,0.034907,0.715585,-0.872665,0,0.436332,511.935,511.994,511.977,476.328,513.845,634.948
0,-0.087266,0.087266,0.001523,0.785398,0.087266,0.001523,0.785398,0,-0.034907,0.715585,-0.872665,0,0.436332,0,0.034907,0.715585,-0.872665,0,0.436332,511.95,511.996,511.982,476.326,513.806,634.944
0,-0.087266,0.087266,0.001523,0.785398,0.087266,0.001523,0.785398,0,-0.034907,0.715585,-0.872665,0,0.436332,0,0.034907,0.715585,-0.872665,0,0.436332,511.962,511.997,511.986,476.325,513.773,634.939
0,-0.087266,0.087266,0.001523,0.785398,0.087266,0.001523,0.785398,0,-0.034907,0.715585,-0.872665,0,0.436332,0,0.034907,0.715585,-0.872665,0,0.436332,511.972,511.999,511.99,476.322,513.754,634.935
0,-0.087266,0.087266,0.001523,0.785398,0.087266,0.001523,0.785398,0,-0.034907,0.715585,-0.872665,0,0.436332,0,0.034907,0.715585,-0.872665,0,0.436332,511.981,512,511.993,476.319,513.739,634.931
0,-0.087266,0.087266,0.001523,0.785398,0.087266,0.001523,0.785398,0,-0.034907,0.715585,-0.872665,0,0.436332,0,0.034907,0.715585,-0.872665,0,0.436332,511.989,512.002,511.995,476.316,513.73,634.927
0,-0.087266,0.087266,0.001523,0.785398,0.087266,0.001523,0.785398,0,-0.034907,0.715585,-0.872665,0,0.436332,0,0.034907,0.715585,-0.872665,0,0.436332,511.995,512.003,511.997,476.311,513.728,634.923
0,-0.087266,0.087266,0.001523,0.785398,0.087266,0.001523,0.785398,0,-0.034907,0.715585,-0.872665,0,0.436332,0,0.034907,0.715585,-0.872665,0,0.436332,512,512.004,511.999,476.307,513.727,634.92
0,-0.087266,0.087266,0.001523,0.785398,0.087266,0.001523,0.785398,0,-0.034907,0.715585,-0.872665,0,0.436332,0,0.034907,0.715585,-0.872665,0,0.436332,512.004,512.005,512,476.303,513.73,634.917
0,-0.087266,0.087266,0.001523,0.785398,0.087266,0.001523,0.785398,0,-0.034907,0.715585,-0.872665,0,0.436332,0,0.034907,0.715585,-0.872665,0,0.436332,512.008,512.006,512.001,476.297,513.736,634.914
0,-0.087266,0.087266,0.001523,0.785398,0.087266,0.001523,0.785398,0,-0.034907,0.715585,-0.872665,0,0.436332,0,0.034907,0.715585,-0.872665,0,0.436332,512.01,512.007,512.002,476.292,513.741,634.911
0,-0.087266,0.087266,0.001523,0.785398,0.087266,0.001523,0.785398,0,-0.034907,0.715585,-0.872665,0,0.436332,0,0.034907,0.715585,-0.872665,0,0.436332,512.012,512.007,512.002,476.288,513.747,634.908
0,-0.087266,0.087266,0.001523,0.785398,0.087266,0.001523,0.785398,0,-0.034907,0.715585,-0.872665,0,0.436332,0,0.034907,0.715585,-0.872665,0,0.436332,512.013,512.008,512.003,476.282,513.756,634.905
0,-0.087266,0.087266,0.001523,0.785398,0.087266,0.001523,0.785398,0,-0.034907,0.715585,-0.872665,0,0.436332,0,0.034907,0.715585,-0.872665,0,0.436332,512.014,512.008,512.003,476.278,513.762,634.903
0,-0.087266,0.087266,0.001523,0.785398,0.087266,0.001523,0.785398,0,-0.034907,0.715585,-0.872665,0,0.436332,0,0.034907,0.715585,-0.872665,0,0.436332,512.014,512.008,512.003,476.274,513.768,634.901
0,-0.087266,0.087266,0.001523,0.785398,0.087266,0.001523,0.785398,0,-0.034907,0.715585,-0.872665,0,0.436332,0,0.034907,0.715585,-0.872665,0,0.436332,512.014,512.008,512.004,476.27,513.774,634.899
0,-0.087266,0.087266,0.001523,0.785398,0.087266,0.001523,0.785398,0,-0.034907,0.715585,-0.872665,0,0.436332,0,0.034907,0.715585,-0.872665,0,0.436332,512.014,512.007,512.003,476.267,513.782,634.897
0,-0.087266,0.087266,0.001523,0.785398,0.087266,0.001523,0.785398,0,-0.034907,0.715585,-0.872665,0,0.436332,0,0.034907,0.715585,-0.872665,0,0.436332,512.013,512.007,512.003,476.264,513.785,634.896
0,-0.087266,0.087266,0.001523,0.785398,0.087266,0.001523,0.785398,0,-0.034907,0.715585,-0.872665,0,0.436332,0,0.034907,0.715585,-0.872665,0,0.436332,512.012,512.006,512.003,476.261,513.79,634.895
0,-0.087266,0.087266,0.001523,0.785398,0.087266,0.001523,0.785398,0,-0.034907,0.715585,-0.872665,0,0.436332,0,0.034907,0.715585,-0.872665,0,0.436332,512.011,512.006,512.003,476.259,513.793,634.894
0,-0.087266,0.087266,0.001523,0.785398,0.087266,0.001523,0.785398,0,-0.034907,0.715585,-0.872665,0,0.436332,0,0.034907,0.715585,-0.872665,0,0.436332,512.01,512.005,512.002,476.257,513.795,634.893
0,-0.087266,0.087266,0.001523,0.785398,0.087266,0.001523,0.785398,0,-0.034907,0.715585,-0.872665,0,0.436332,0,0.034907,0.715585,-0.872665,0,0.436332,512.009,512.005,512.002,476.256,513.798,634.893
0,-0.087266,0.087266,0.001523,0.785398,0.087266,0.001523,0.785398,0,-0.034907,0.715585,-0.872665,0,0.436332,0,0.034907,0.715585,-0.872665,0,0.436332,512.007,512.004,512.002,476.255,513.798,634.892
0,-0.087266,0.087266,0.001523,0.785398,0.087266,0.001523,0.785398,0,-0.034907,0.715585,-0.872665,0,0.436332,0,0.034907,0.715585,-0.872665,0,0.436332,512.006,512.003,512.001,476.255,513.798,634.892
0,-0.087266,0.087266,0.001523,0.785398,0.087266,0.001523,0.785398,0,-0.034907,0.715585,-0.872665,0,0.436332,0,0.034907,0.715585,-0.872665,0,0.436332,512.005,512.003,512.001,476.254,513.799,634.892
0,-0.087266,0.087266,0.001523,0.785398,0.087266,0.001523,0.785398,0,-0.034907,0.715585,-0.872665,0,0.436332,0,0.034907,0.715585,-0.872665,0,0.436332,512.003,512.002,512.001,476.255,513.797,634.892
0,-0.087266,0.087266,0.001523,0.785398,0.087266,0.001523,0.785398,0,-0.034907,0.715585,-0.872665,0,0.436332,0,0.034907,0.715585,-0.872665,0,0.436332,512.002,512.001,512,476.255,513.795,634.892
0,-0.087266,0.087266,0.001523,0.785398,0.087266,0.001523,0.785398,0,-0.034907,0.715585,-0.872665,0,0.436332,0,0.034907,0.715585,-0.872665,0,0.436332,512.001,512.001,512,476.256,513.794,634.893
0,-0.087266,0.087266,0.001523,0.785398,0.087266,0.001523,0.785398,0,-0.034907,0.715585,-0.872665,0,0.436332,0,0.034907,0.715585,-0.872665,0,0.436332,512,512,511.999,476.257,513.791,634.893
0,-0.087266,0.087266,0.001523,0.785398,0.087266,0.001523,0.785398,0,-0.034907,0.715585,-0.872665,0,0.436332,0,0.034907,0.715585,-0.872665,0,0.436332,511.999,512,511.999,476.257,513.789,634.894
0,-0.087266,0.087266,0.001523,0.785398,0.087266,0.001523,0.785398,0,-0.034907,0.715585,-0.872665,0,0.436332,0,0.034907,0.715585,-0.872665,0,0.436332,511.998,511.999,511.999,476.259,513.786,634.894
0,-0.087266,0.087266,0.001523,0.785398,0.087266,0.001523,0.785398,0,-0.034907,0.715585,-0.872665,0,0.436332,0,0.034907,0.715585,-0.872665,0,0.436332,511.998,511.999,511.999,476.26,513.782,634.895
0,-0.087266,0.087266,0.001523,0.785398,0.087266,0.001523,0.785398,0,-0.034907,0.715585,-0.872665,0,0.436332,0,0.034907,0.715585,-0.872665,0,0.436332,511.997,511.999,511.999,476.261,513.782,634.896
0,-0.087266,0.087266,0.001523,0.785398,0.087266,0.001523,0.785398,0,-0.034907,0.715585,-0.872665,0,0.436332,0,0.034907,0.715585,-0.872665,0,0.436332,511.997,511.999,511.999,476.262,513.777,634.896
0,-0.087266,0.087266,0.001523,0.785398,0.087266,0.001523,0.785398,0,-0.034907,0.715585,-0.872665,0,0.436332,0,0.034907,0.715585,-0.872665,0,0.436332,511.996,511.998,511.998,476.264,513.774,634.897
0,-0.087266,0.087266,0.001523,0.785398,0.087266,0.001523,0.785398,0,-0.034907,0.715585,-0.872665,0,0.436332,0,0.034907,0.715585,-0.872665,0,0.436332,511.996,511.998,511.998,476.265,513.772,634.898
0,-0.087266,0.087266,0.001523,0.785398,0.087266,0.001523,0.785398,0,-0.034907,0.715585,-0.872665,0,0.436332,0,0.034907,0.715585,-0.872665,0,0.436332,511.999,511.999,511.999,476.292,513.707,634.911
0,-0.087266,0.087266,0.001523,0.785398,0.087266,0.001523,0.785398,0,-0.034907,0.715585,-0.872665,0,0.436332,0,0.034907,0.715585,-0.872665,0,0.436332,511.999,512,511.999,476.273,513.753,634.901
0,-0.087266,0.087266,0.001523,0.785398,0.087266,0.001523,0.785398,0,-0.034907,0.715585,-0.872665,0,0.436332,0,0.034907,0.715585,-0.872665,0,0.436332,511.999,512,511.999,476.269,513.762,634.9
0,-0.087266,0.087266,0.001523,0.785398,0.087266,0.001523,0.785398,0,-0.034907,0.715585,-0.872665,0,0.436332,0,0.034907,0.715585,-0.872665,0,0.436332,511.999,512,511.999,476.268,513.764,634.899
0,-0.087266,0.087266,0.001523,0.785398,0.087266,0.001523,0.785398,0,-0.034907,0.715585,-0.872665,0,0.436332,0,0.034907,0.715585,-0.872665,0,0.436332,511.999,512,511.999,476.268,513.764,634.899
0,-0.087266,0.087266,0.001523,0.785398,0.087266,0.001523,0.785398,0,-0.034907,0.715585,-0.872665,0,0.436332,0,0.034907,0.715585,-0.872665,0,0.436332,511.999,512,511.999,476.268,513.764,634.899
0,-0.087266,0.087266,0.001523,0.785398,0.087266,0.001523,0.785398,0,-0.034907,0.715585,-0.872665,0,0.436332,0,0.034907,0.715585,-0.872665,0,0.436332,511.999,512,511.999,476.268,513.764,634.899
0,-0.087266,0.087266,0.001523,0.785398,0.087266,0.001523,0.785398,0,-0.034907,0.715585,-0.872665,0,0.436332,0,0.034907,0.715585,-0.872665,0,0.436332,511.999,512,511.999,476.268,513.763,634.899
0,-0.087266,0.087266,0.001523,0.785398,0.087266,0.001523,0.785398,0,-0.034907,0.715585,-0.872665,0,0.436332,0,0.034907,0.715585,-0.872665,0,0.436332,511.999,512,511.999,476.268,513.764,634.899
0,-0.087266,0.087266,0.001523,0.785398,0.087266,0.001523,0.785398,0,-0.034907,0.715585,-0.872665,0,0.436332,0,0.034907,0.715585,-0.872665,0,0.436332,511.999,512,511.999,476.268,513.764,634.899
0,-0.087266,0.087266,0.001523,0.785398,0.087266,0.001523,0.785398,0,-0.034907,0.715585,-0.872665,0,0.436332,0,0.034907,0.715585,-0.872665,0,0.436332,511.999,512,511.999,476.268,513.763,634.899
0,-0.087266,0.087266,0.001523,0.785398,0.087266,0.001523,0.785398,0,-0.034907,0.715585,-0.872665,0,0.436332,0,0.034907,0.715585,-0.872665,0,0.436332,512,512,511.999,476.268,513.763,634.899
0,-0.087266,0.087266,0.001523,0.785398,0.087266,0.001523,0.785398,0,-0.034907,0.715585,-0.872665,0,0.436332,0,0.034907,0.715585,-0.872665,0,0.436332,511.999,512,511.999,476.268,513.766,634.898
